"Time (s)","Acceleration x (m/s^2)","Acceleration y (m/s^2)","Acceleration z (m/s^2)","Absolute acceleration (m/s^2)"
2.727875020E-3,-4.100123749E0,7.247179413E0,5.283263397E0,9.861313113E0
1.267841668E-2,-3.516936493E0,6.799161072E0,5.427713013E0,9.383895893E0
2.263141668E-2,-3.415746918E0,7.316934357E0,5.139262848E0,9.571670596E0
3.258441668E-2,-3.793411560E0,7.926466827E0,4.528981934E0,9.885875024E0
4.253641667E-2,-3.742816772E0,8.055498505E0,4.769980774E0,1.008228397E1
5.248941667E-2,-3.878584442E0,8.091573486E0,5.094505920E0,1.031847708E1
6.244241667E-2,-4.366270294E0,8.255632324E0,5.014871521E0,1.060041121E1
7.239441667E-2,-4.565505981E0,8.099806366E0,4.904251556E0,1.051201177E1
8.234741667E-2,-4.461771698E0,7.615114288E0,4.793930969E0,1.004386113E1
9.229941666E-2,-4.358187103E0,7.263196106E0,4.694986725E0,9.684560540E0
1.022524167E-1,-4.379891968E0,7.219337311E0,4.695735168E0,9.661894929E0
1.122054167E-1,-4.156855774E0,7.136110382E0,5.129832458E0,9.722072946E0
1.221574167E-1,-3.865112457E0,7.114106140E0,5.989045715E0,1.007066378E1
1.321104167E-1,-3.512296143E0,7.250622253E0,6.343209229E0,1.025397731E1
1.420634167E-1,-3.182980957E0,7.115603027E0,6.217919769E0,9.971243677E0
1.520154167E-1,-2.984942780E0,6.799161072E0,6.206244049E0,9.677599903E0
1.619684167E-1,-2.845881958E0,6.440656586E0,6.018384705E0,9.262939913E0
1.719214167E-1,-3.271596680E0,4.589905243E0,6.311774597E0,8.462214458E0
1.818734166E-1,-1.130299530E0,5.442083130E0,7.514673157E0,9.346879612E0
1.918264166E-1,3.370989990E-1,7.733069000E0,6.215674438E0,9.927164783E0
2.017784166E-1,-5.307962036E-1,4.479135590E0,5.632786560E0,7.216140566E0
2.117314166E-1,6.906637573E-1,5.015919342E0,6.887327728E0,8.548201361E0
2.216844166E-1,1.128203888E0,6.002667389E0,6.590345306E0,8.985405447E0
2.316364166E-1,1.471889191E0,4.319268036E0,6.783294067E0,8.175305044E0
2.415894166E-1,2.605631561E0,3.157533875E0,6.299649811E0,7.512983678E0
2.515424166E-1,2.162552948E0,3.388802948E0,7.657176819E0,8.648293329E0
2.614944166E-1,2.424957275E-2,5.473068695E0,6.418502655E0,8.435179033E0
2.714474166E-1,-2.927612000E0,5.120851135E0,6.624773712E0,8.870268040E0
2.814004166E-1,-3.216960297E0,4.361929321E0,7.275769958E0,9.072601030E0
2.913524166E-1,-2.510728912E0,4.252955933E0,7.714357910E0,9.159842346E0
3.013054166E-1,-2.043251038E0,4.928052063E0,8.831634521E0,1.031786510E1
3.112574167E-1,-1.092128906E0,6.283782806E0,9.530680847E0,1.146789210E1
3.212104167E-1,2.737806702E-1,7.065157928E0,1.041070084E1,1.258467736E1
3.311634167E-1,1.982178040E0,8.186925201E0,1.096215408E1,1.382474579E1
3.411154167E-1,3.366199951E0,1.088596252E1,1.129311584E1,1.604275374E1
3.510684167E-1,3.417692871E0,1.299687286E1,1.156659714E1,1.773091927E1
3.610214167E-1,2.857557678E0,1.377899643E1,1.000145187E1,1.726428157E1
3.709734167E-1,1.549727325E0,1.402343811E1,8.994196472E0,1.673182720E1
3.809264167E-1,2.062710571E-1,1.382195709E1,9.151519318E0,1.657827951E1
3.908794167E-1,3.508703613E-1,1.277189072E1,1.027732819E1,1.639718809E1
4.008314167E-1,1.332379303E0,1.052386551E1,1.200308945E1,1.601877449E1
4.107844167E-1,1.258283386E0,8.766519928E0,1.299941757E1,1.572959014E1
4.207364167E-1,3.570075989E-1,7.533833313E0,1.319790482E1,1.520101281E1
4.306894167E-1,-7.777825928E-1,5.918692017E0,1.283281403E1,1.415333801E1
4.406424167E-1,-2.291734314E0,4.425696716E0,1.235171448E1,1.331929758E1
4.505944167E-1,-3.613934784E0,3.038681030E0,1.157737473E1,1.250318810E1
4.605474167E-1,-4.498744812E0,1.609902191E0,1.035157379E1,1.140112143E1
4.705004167E-1,-5.082381134E0,5.041516113E-1,8.284372559E0,9.732193768E0
4.804524167E-1,-5.804329834E0,-4.186793518E-1,5.829776917E0,8.237222597E0
4.904054167E-1,-6.978787537E0,-9.993218994E-1,4.010310516E0,8.110777409E0
5.003584167E-1,-8.100405121E0,-1.467248840E0,2.606080627E0,8.634873393E0
5.103104167E-1,-8.571475525E0,-1.732197876E0,1.244961090E0,8.832928748E0
5.202634167E-1,-8.489446106E0,-1.712738342E0,5.224136353E-2,8.660652226E0
5.302154167E-1,-8.546477509E0,-1.148860931E0,-3.848497009E-1,8.631933071E0
5.401684167E-1,-8.688831482E0,-1.835183716E-1,-8.337661743E-2,8.691169264E0
5.501214167E-1,-8.615783386E0,7.572752380E-1,2.511776733E-1,8.652645802E0
5.600734167E-1,-8.159083099E0,1.563049622E0,3.941304016E-1,8.316796253E0
5.700264167E-1,-8.055348816E0,2.467768250E0,8.842112732E-1,8.471148343E0
5.799794167E-1,-8.291707306E0,3.332370300E0,1.534010010E0,9.066988948E0
5.899314167E-1,-7.725584564E0,3.665727081E0,2.091151428E0,8.803131613E0
5.998844167E-1,-7.464677124E0,4.077221375E0,3.065924377E0,9.041295869E0
6.098374167E-1,-7.565717010E0,4.563260651E0,4.342619476E0,9.844885249E0
6.197894167E-1,-7.367978210E0,4.853058014E0,5.223537598E0,1.025302980E1
6.297424167E-1,-6.822811890E0,4.946014709E0,5.968089294E0,1.032627297E1
6.396944167E-1,-6.250701599E0,4.814438324E0,6.508016510E0,1.022762757E1
6.496474167E-1,-5.848488007E0,4.684658203E0,6.607110443E0,9.990232372E0
6.596004167E-1,-5.583688660E0,4.713697815E0,6.610553284E0,9.853727257E0
6.695524167E-1,-5.487588501E0,4.666545868E0,6.626270599E0,9.787631989E0
6.795054167E-1,-5.189707947E0,4.488416290E0,6.627617798E0,9.539615665E0
6.894584167E-1,-5.021457825E0,4.684658203E0,6.709946594E0,9.601273065E0
6.994104167E-1,-4.686155090E0,5.280718689E0,6.702462158E0,9.734939054E0
7.093634167E-1,-4.109105072E0,6.065686340E0,6.857539673E0,1.003509570E1
7.193164167E-1,-3.578308868E0,6.799909515E0,6.762936401E0,1.023622843E1
7.292684166E-1,-3.098556519E0,7.392227783E0,6.141129456E0,1.009750242E1
7.392214166E-1,-3.272943878E0,7.762258301E0,5.303770752E0,9.954637098E0
7.491734166E-1,-3.510050812E0,7.665260010E0,4.437821503E0,9.527377782E0
7.591264166E-1,-3.020419006E0,7.527696075E0,4.370162201E0,9.213438926E0
7.690794166E-1,-2.554438019E0,7.669900360E0,4.823868713E0,9.413938309E0
7.790314166E-1,-2.496807861E0,8.331225128E0,4.872517548E0,9.969191988E0
7.889844166E-1,-2.340981903E0,8.795559540E0,4.760849762E0,1.027169676E1
7.989374166E-1,-2.343825989E0,8.652756500E0,4.120331726E0,9.866146606E0
8.088894166E-1,-2.467618561E0,8.373287659E0,2.937341766E0,9.210269498E0
8.188424166E-1,-2.568957825E0,8.081244965E0,1.972747650E0,8.706193070E0
8.287954166E-1,-2.113155670E0,7.794740753E0,1.456321564E0,8.206356243E0
8.387474166E-1,-1.836530914E0,7.713908844E0,1.530567169E0,8.075882076E0
8.487004166E-1,-1.787283325E0,7.870782623E0,1.985770569E0,8.311852112E0
8.586534166E-1,-1.544787598E0,7.776179352E0,2.532882843E0,8.322909920E0
8.686054167E-1,-1.278940430E0,7.465724945E0,3.090473328E0,8.180694528E0
8.785584166E-1,-8.931925964E-1,7.298372955E0,2.974913635E0,7.931844171E0
8.885104167E-1,-1.126108246E0,7.249275055E0,2.131417694E0,7.639571322E0
8.984634167E-1,-2.222877502E0,7.306456146E0,8.979826355E-1,7.689724223E0
9.084164167E-1,-3.180885315E0,7.151977386E0,-6.469546509E-1,7.854130267E0
9.183684167E-1,-3.645369415E0,6.833888855E0,-1.955383759E0,7.988384111E0
9.283214167E-1,-3.827989655E0,6.543492737E0,-2.819985809E0,8.088456092E0
9.382744167E-1,-3.439098358E0,6.042035522E0,-3.052302704E0,7.592769097E0
9.482264167E-1,-2.996319122E0,5.219046936E0,-1.954485626E0,6.327431807E0
9.581794167E-1,-2.404300232E0,4.828359375E0,-3.152444458E-1,5.403063290E0
9.681314167E-1,-1.798060913E0,4.797074432E0,1.718576202E0,5.403559042E0
9.780844167E-1,-1.297202454E0,6.249055023E0,3.689228210E0,7.371826617E0
9.880374167E-1,-4.962181091E-1,8.670719147E0,4.287983093E0,9.685783497E0
9.979894167E-1,-1.058299255E-1,1.038675064E1,3.064726868E0,1.082997413E1
1.007942417E0,-7.119195557E-1,1.488923767E1,2.705024872E0,1.514969925E1
1.017895042E0,1.026116180E0,1.622056915E1,2.278412018E0,1.641191456E1
1.027847042E0,1.107696533E0,1.806862610E1,1.512005768E0,1.816558290E1
1.037800042E0,1.405876465E0,1.779424667E1,2.374212799E0,1.800690395E1
1.047753042E0,1.639690247E0,1.646695679E1,3.906127167E0,1.700314910E1
1.057705042E0,1.245559845E0,1.477951584E1,3.091820526E0,1.515073800E1
1.067658042E0,3.348536682E-1,1.230710724E1,7.140151978E-1,1.233234906E1
1.077610042E0,-9.970765686E-1,1.234647537E1,-1.009201355E0,1.242771512E1
1.087563042E0,-9.535171509E-1,1.262190262E1,-3.168311462E0,1.304836458E1
1.097516042E0,-3.936813354E-1,1.355311615E1,-2.607727203E0,1.380732355E1
1.107468042E0,-1.352587280E0,1.395742538E1,-3.966751099E-1,1.402841997E1
1.117421042E0,-3.989354095E0,1.317021240E1,1.554966431E0,1.384873140E1
1.127374042E0,-6.415808258E0,1.190204956E1,2.518063660E0,1.375361858E1
1.137326042E0,-6.837182007E0,1.071606583E1,2.644251251E0,1.298357383E1
1.147279042E0,-5.577401733E0,9.965975647E0,1.719624023E0,1.154925052E1
1.157232042E0,-3.735631714E0,1.054078033E1,-7.363188171E-1,1.120737078E1
1.167184042E0,-1.572779388E0,1.126108246E1,-1.343905334E0,1.144952814E1
1.177137042E0,7.878117371E-1,1.073836945E1,1.261426849E0,1.084086820E1
1.187089042E0,3.549269257E0,9.788145447E0,7.917335815E0,1.308011124E1
1.197042042E0,5.137316895E0,7.311395874E0,7.369026031E0,1.158236069E1
1.206995042E0,4.674329681E0,4.199217682E0,6.298901367E0,8.897131310E0
1.216947042E0,4.935835876E0,1.315614166E0,2.916984100E0,5.882356048E0
1.226900042E0,4.716092834E0,2.017504578E0,1.326092377E0,5.298148482E0
1.236853042E0,4.073479156E0,4.801265717E0,1.461560669E0,6.463864518E0
1.246805042E0,3.935017090E0,6.654412079E0,1.030606842E0,7.799212145E0
1.256758042E0,2.661166077E0,7.943830719E0,-1.549577637E0,8.519826420E0
1.266710042E0,1.801952820E0,8.810977478E0,-2.164199524E0,9.250087441E0
1.276663042E0,1.626218262E0,4.615352325E0,7.858657837E-2,4.894102448E0
1.286616042E0,-6.086343384E-1,1.154818542E1,3.990551605E0,1.223337748E1
1.296568042E0,8.659492493E-1,1.340417587E1,-1.246008911E0,1.348978640E1
1.306521042E0,-1.911974030E0,1.401894745E1,-2.338886261E0,1.434074340E1
1.316474042E0,-2.513423309E0,1.507859390E1,1.969903564E-1,1.528790686E1
1.326426042E0,-9.562115479E-1,1.388213196E1,1.950593719E0,1.405107626E1
1.336379042E0,8.854087830E-1,1.067699707E1,2.450254669E0,1.099026674E1
1.346332042E0,-4.445755005E-1,1.004950195E1,2.153571625E0,1.028727406E1
1.356284042E0,-3.296145630E0,1.049033524E1,1.662293243E0,1.112092299E1
1.366237042E0,-6.154451752E0,1.029544052E1,3.844006348E0,1.259562451E1
1.376189042E0,-7.378306732E0,7.880213013E0,1.334968918E1,1.716832457E1
1.386142042E0,-7.568561096E0,6.977739716E0,1.416713928E1,1.751227581E1
1.396095042E0,-8.931925964E0,8.445587311E0,2.424807587E0,1.252944286E1
1.406047042E0,-8.062683563E0,6.567742310E0,2.364033966E0,1.066446257E1
1.416000042E0,-6.220165100E0,6.987319794E0,5.487887878E0,1.084573673E1
1.425953042E0,-6.386319580E0,7.348967743E0,4.376748505E0,1.067465841E1
1.435905042E0,-3.850143585E0,8.697064362E0,2.344125366E0,9.795787762E0
1.445858042E0,-2.902763672E0,8.910221100E0,5.759273529E0,1.099942310E1
1.455811042E0,-2.405647430E0,8.063731384E0,7.762108612E0,1.144819783E1
1.465763042E0,-2.070644073E0,7.695048065E0,6.172264709E0,1.007959241E1
1.475716042E0,-3.626957703E-1,8.060138855E0,2.592608643E0,8.474609499E0
1.485668042E0,3.384461975E-1,7.859555969E0,3.415896606E-1,7.874252305E0
1.495621042E0,2.576741638E0,7.941735077E0,-2.000290375E0,8.585564343E0
1.505574042E0,5.214556274E0,9.752220154E0,-7.398365021E0,1.330538237E1
1.515526042E0,-2.402503967E-1,7.069498901E0,1.637594604E-1,7.075475400E0
1.525479042E0,3.954776001E-1,3.801345062E0,7.539970551E0,8.453270534E0
1.535432042E0,8.377478943E0,5.648054810E0,-6.971003723E-1,1.012761697E1
1.545384042E0,5.207820282E0,9.517807617E0,-3.651656342E0,1.144747343E1
1.555337042E0,5.169050903E0,1.286963745E1,-5.382656708E0,1.487681581E1
1.565290042E0,6.312822418E0,1.375504623E1,-7.347770233E0,1.682387444E1
1.575242042E0,5.678591309E0,1.412792084E1,-6.017636261E0,1.637243087E1
1.585195042E0,5.443430328E0,1.362586487E1,-3.697311401E0,1.513159736E1
1.595147042E0,4.978347473E0,1.305764648E1,-1.986069946E0,1.411490521E1
1.605100042E0,4.841382294E0,1.284164566E1,-1.610351257E0,1.381810685E1
1.615053042E0,5.538183289E0,1.236294113E1,-2.424508209E0,1.376197761E1
1.625005042E0,6.372847595E0,1.162572418E1,-2.678080902E0,1.352563368E1
1.634958042E0,3.408711548E0,1.157318344E1,-4.549189911E0,1.289391400E1
1.644911042E0,1.194815369E0,1.064735870E1,-1.992506561E0,1.089788574E1
1.654863042E0,1.749861145E0,9.410331116E0,-9.653425598E-1,9.620199166E0
1.664816042E0,2.876268768E0,8.455317078E0,-2.890040131E0,9.387099705E0
1.674768042E0,2.559826813E0,7.887248383E0,-2.438878326E0,8.643467351E0
1.684721042E0,-1.372645569E-1,7.353308716E0,-2.439177704E0,7.748521052E0
1.694674042E0,-1.003812561E0,7.054979095E0,-1.091979218E0,7.209215513E0
1.704626042E0,-1.276246033E0,7.446265411E0,-5.533992004E-1,7.575085688E0
1.714579042E0,-1.035845947E0,7.732769623E0,-6.710545349E-1,7.830646018E0
1.724532042E0,-2.773731995E-1,7.713759155E0,-1.206491089E-1,7.719687326E0
1.734484042E0,8.313711548E-1,8.121361542E0,1.169068909E-1,8.164640746E0
1.744437042E0,2.134112091E0,8.619226227E0,7.800279236E-1,8.913693888E0
1.754390042E0,3.793710938E0,9.325008545E0,-1.242416382E-2,1.006718339E1
1.764342042E0,4.866979065E0,9.820478210E0,-1.024469604E0,1.100812498E1
1.774295042E0,4.973108368E0,1.004291565E1,-1.989812164E0,1.138206106E1
1.784247042E0,4.360133057E0,1.006896149E1,-2.419269104E0,1.123599611E1
1.794200042E0,3.728746033E0,1.011611343E1,-2.691552887E0,1.111232446E1
1.804153042E0,3.220253448E0,1.011761032E1,-2.438429260E0,1.089412723E1
1.814105042E0,2.881956940E0,1.014650024E1,-2.102078705E0,1.075527210E1
1.824058042E0,2.469414825E0,1.010563522E1,-1.530567169E0,1.051496594E1
1.834011042E0,2.075583801E0,1.001432510E1,-1.042581940E0,1.028016209E1
1.843963042E0,1.738185425E0,9.756561127E0,-8.970845032E-1,9.950705211E0
1.853916042E0,1.285077667E0,9.386979675E0,-1.303339691E0,9.563760055E0
1.863868042E0,8.044271851E-1,9.048084412E0,-1.606908417E0,9.224808360E0
1.873821042E0,3.124003601E-1,8.775052185E0,-1.505718842E0,8.908777922E0
1.883774042E0,-9.535171509E-2,8.724158020E0,-1.135239258E0,8.798226712E0
1.893726042E0,1.363664246E-1,9.077872467E0,-9.271719360E-1,9.126117035E0
1.903679042E0,8.219407654E-1,9.723180542E0,-8.672964478E-1,9.796327353E0
1.913632042E0,1.279090118E0,1.045770309E1,-1.012793884E0,1.058420413E1
1.923584042E0,1.386117554E0,1.095481934E1,-8.476872253E-1,1.107465404E1
1.933537042E0,1.325792999E0,1.093820389E1,-1.135688324E0,1.107663394E1
1.943490042E0,1.473236389E0,1.035082535E1,-1.045575714E0,1.050729458E1
1.953442042E0,1.854343872E0,9.394164734E0,-1.053958282E0,9.633262703E0
1.963395042E0,1.928439789E0,9.028175812E0,-1.173709259E0,9.306150221E0
1.973347042E0,1.497036896E0,9.117240601E0,-1.566941528E0,9.371259328E0
1.983300042E0,1.005010071E0,9.388626251E0,-1.706451416E0,9.595224050E0
1.993253042E0,8.652008057E-1,9.581425323E0,-1.564097443E0,9.746726860E0
2.003205042E0,9.964778137E-1,9.714498596E0,-1.205143890E0,9.839553994E0
2.013158042E0,1.551523590E0,9.149573364E0,-5.533992004E-1,9.296675152E0
2.023111250E0,2.168839874E0,8.825646973E0,-7.747888184E-1,9.121195569E0
2.033063250E0,1.797462158E0,9.354347534E0,-1.606159973E0,9.659939848E0
2.043016250E0,9.406439209E-1,9.499844971E0,-1.501527557E0,9.663666512E0
2.052968250E0,6.526428223E-2,9.883347473E0,-1.269510040E0,9.964761535E0
2.062921250E0,-1.556762695E-1,1.004216721E1,-1.396146698E0,1.013994985E1
2.072874250E0,6.529421997E-1,1.022164398E1,-1.141526184E0,1.030589255E1
2.082826250E0,1.379082184E0,1.078462326E1,-3.888912964E-1,1.087939350E1
2.092779250E0,1.195114746E0,1.064840652E1,-7.607180786E-1,1.074223221E1
2.102732250E0,1.042881317E0,1.029873367E1,-1.449435883E0,1.045238638E1
2.112684250E0,1.152902527E0,1.008273285E1,-1.839824066E0,1.031385663E1
2.122637250E0,1.462907867E0,9.491312714E0,-2.754122772E0,9.990510933E0
2.132589250E0,1.648671570E0,9.164691925E0,-2.224524078E0,9.573829088E0
2.142542250E0,1.329535217E0,9.263636169E0,-1.141825562E0,9.427957604E0
2.152495250E0,1.119372253E0,9.610015869E0,-4.254153442E-1,9.684336707E0
2.162447250E0,1.435365143E0,9.678872681E0,1.260379028E-1,9.785537033E0
2.172400250E0,1.873803406E0,9.914931793E0,-1.472487946E0,1.019731496E1
2.182353250E0,1.851499786E0,1.123593475E1,-1.380579071E0,1.147084477E1
2.192305250E0,1.729353790E0,1.107187592E1,-2.372566223E-1,1.120863023E1
2.202258250E0,1.663640442E0,1.012928604E1,-8.129594421E-1,1.029713738E1
2.212211250E0,1.560804291E0,9.660610657E0,-8.879534912E-1,9.826086184E0
2.222163250E0,1.038690033E0,9.481882324E0,-1.519639893E0,9.658896148E0
2.232116250E0,2.222877502E-1,9.594747620E0,-1.978735199E0,9.799182962E0
2.242068250E0,-4.899311829E-1,9.628577271E0,-2.118843842E0,9.871121114E0
2.252021250E0,-9.074130249E-1,9.696535950E0,-2.127974854E0,9.968675178E0
2.261974250E0,-7.795788574E-1,9.537716217E0,-1.735790405E0,9.725674381E0
2.271926250E0,-5.194198608E-1,9.583071899E0,-1.552122345E0,9.721838704E0
2.281879250E0,-2.727328491E-1,9.665999451E0,-1.651815033E0,9.809914449E0
2.291832250E0,1.661544800E-2,9.821825409E0,-1.833986206E0,9.991598263E0
2.301784250E0,5.993536377E-1,9.662556610E0,-1.467697906E0,9.791749699E0
2.311737250E0,1.086889801E0,9.522747345E0,-1.214424591E0,9.661204559E0
2.321689250E0,1.389710083E0,9.607620850E0,-1.822460175E0,9.877197659E0
2.331642250E0,1.726210327E0,9.385632477E0,-1.932780762E0,9.736813676E0
2.341595250E0,1.918710022E0,9.472601624E0,-1.402733002E0,9.766232106E0
2.351547250E0,1.909579010E0,9.725425873E0,-9.406439209E-1,9.955662278E0
2.361500250E0,1.744322662E0,9.848320312E0,-8.533753967E-1,1.003794422E1
2.371453250E0,1.791324921E0,9.751022644E0,-9.699829102E-1,9.961533738E0
2.381405250E0,2.070494385E0,9.555379486E0,-1.249900818E0,9.856697022E0
2.391358250E0,2.216291199E0,9.777966614E0,-5.849835205E-1,1.004304652E1
2.401310250E0,2.099533997E0,9.898466034E0,-3.897894287E-1,1.012618431E1
2.411263250E0,1.901944885E0,9.976453857E0,-4.141886902E-1,1.016457467E1
2.421216250E0,1.696422272E0,9.762099609E0,-6.649172974E-1,9.930687404E0
2.431168250E0,1.184935913E0,9.745484161E0,-5.685177612E-1,9.833704648E0
2.441121250E0,8.509803772E-1,9.360634460E0,-9.518705750E-1,9.447311930E0
2.451074250E0,1.740879822E0,7.806117096E0,-3.315754852E0,8.657964940E0
2.461026250E0,2.218386841E0,9.012009430E0,-4.487667847E-1,9.291875256E0
2.470979250E0,3.239712982E0,8.400231628E0,2.821632385E-1,9.007732662E0
2.480932250E0,3.812721405E0,9.119635620E0,1.565893707E0,1.000782801E1
2.490884250E0,3.755690002E0,8.538843384E0,1.670675812E0,9.476719443E0
2.500837250E0,3.159030762E0,9.071136475E0,1.453028412E0,9.714745692E0
2.510789250E0,3.391946411E0,7.775730286E0,-8.297245789E-1,8.523832753E0
2.520742250E0,3.120560760E0,8.869056702E0,-3.879781952E0,1.017107537E1
2.530695250E0,3.084336090E0,1.023676254E1,-5.251080322E0,1.191126698E1
2.540647250E0,2.800825653E0,1.034319122E1,-5.175487518E0,1.190007983E1
2.550600250E0,1.711540833E0,1.090422455E1,-5.626349945E0,1.238899910E1
2.560553250E0,5.665718079E-1,1.076231964E1,-5.609135742E0,1.214952392E1
2.570505250E0,-2.642005920E-1,1.041309586E1,-4.622986450E0,1.139624372E1
2.580458250E0,-4.514611816E-1,9.527238007E0,-3.112926636E0,1.003306501E1
2.590410250E0,-1.922003174E-1,9.634714508E0,-3.382216644E0,1.021293562E1
2.600363250E0,-8.831634521E-3,9.372609558E0,-2.704276428E0,9.754947408E0
2.610316250E0,-1.252894592E-1,9.761800232E0,-1.799857178E0,9.927130858E0
2.620268250E0,-6.526428223E-2,9.576635284E0,-1.952090607E0,9.773784351E0
2.630221250E0,3.094065857E-1,9.312135315E0,-1.450783081E0,9.429547609E0
2.640174250E0,7.036866760E-1,8.704997864E0,-8.544232178E-1,8.775089845E0
2.650126250E0,1.162332916E0,8.648265839E0,1.932481384E-1,8.728165023E0
2.660079250E0,1.494941254E0,9.197174377E0,1.260379028E0,9.402734771E0
2.670031250E0,1.582958221E0,1.084734283E1,2.626737671E0,1.127254870E1
2.679984250E0,1.799707489E0,1.071651489E1,1.532363434E0,1.097409569E1
2.689937250E0,-2.086660767E-1,1.320479050E1,1.364113312E0,1.327670286E1
2.699889250E0,-1.340462494E0,1.191103088E1,1.510658569E0,1.208104241E1
2.709842250E0,-3.382965088E-1,9.646988983E0,-2.110610962E-1,9.655225930E0
2.719795250E0,4.858895874E-1,9.151818695E0,-9.663903809E-1,9.215518677E0
2.729747250E0,6.328839111E-1,8.518336029E0,-5.926176453E-1,8.562347016E0
2.739700250E0,6.851252747E-1,8.300239563E0,7.679031372E-2,8.328821657E0
2.749652250E0,2.556683350E-1,8.642727356E0,5.430706787E-1,8.663545937E0
2.759605250E0,-7.150630188E-1,9.295220490E0,1.597627716E0,9.458586226E0
2.769558250E0,-2.280058594E0,9.621092834E0,2.647245026E0,1.023581950E1
2.779510250E0,-2.775677948E0,1.379067215E1,2.203867035E0,1.423882215E1
2.789463250E0,-1.350940704E0,1.185370010E1,-3.818858643E0,1.252672855E1
2.799416250E0,1.207538910E0,9.144034882E0,-7.617209930E0,1.196216583E1
2.809368250E0,3.857777710E0,9.101972351E0,2.364782410E0,1.016467144E1
2.819321250E0,3.829336853E0,8.033943329E0,1.064286804E-1,8.900527693E0
2.829273250E0,3.812122650E0,9.258995819E0,-5.504054260E-1,1.002817176E1
2.839226250E0,3.798500977E0,9.540859680E0,-1.131646729E0,1.033137152E1
2.849179250E0,3.297492828E0,9.602830811E0,-2.215842133E0,1.039219779E1
2.859131250E0,2.773432617E0,9.313033447E0,-2.411485291E0,1.001198191E1
2.869084250E0,2.303559723E0,9.070687408E0,-1.882185974E0,9.546013906E0
2.879037250E0,1.771116943E0,9.015901337E0,-1.965263214E0,9.396041275E0
2.888989250E0,1.828298035E0,9.446256409E0,-1.805994415E0,9.789588841E0
2.898942250E0,2.009870453E0,9.954000549E0,-1.584754486E0,1.027779903E1
2.908895250E0,1.880539398E0,1.068702621E1,-1.346000977E0,1.093438047E1
2.918847250E0,2.048041077E0,1.124461670E1,-1.248254242E0,1.149756564E1
2.928800250E0,2.505938873E0,1.117336487E1,-1.329834595E0,1.152789105E1
2.938752250E0,2.790048065E0,1.080782501E1,-1.340911560E0,1.124239714E1
2.948705250E0,2.952909393E0,1.046473846E1,-1.414408722E0,1.096498869E1
2.958658250E0,2.689157867E0,1.004366409E1,-1.529669037E0,1.050935991E1
2.968610250E0,2.181713104E0,9.654473419E0,-1.483415222E0,1.000845891E1
2.978563250E0,1.812880096E0,9.173822937E0,-1.100212097E0,9.415733014E0
2.988516250E0,1.799707489E0,8.789122925E0,-1.024319916E0,9.029776305E0
2.998468250E0,1.858684845E0,8.461005249E0,-8.967851257E-1,8.709049474E0
3.008421250E0,1.833237762E0,8.388705597E0,-5.477110291E-1,8.604134451E0
3.018373625E0,1.644330597E0,8.657696228E0,-3.650907898E-1,8.820023717E0
3.028326625E0,1.428479462E0,9.199719086E0,-4.840933228E-1,9.322538880E0
3.038279625E0,1.305285645E0,9.745933228E0,-7.556286621E-1,9.861945029E0
3.048231625E0,1.326691132E0,1.024200165E1,-8.783734131E-1,1.036485634E1
3.058184625E0,1.459465027E0,1.047686325E1,-1.302591248E0,1.065792877E1
3.068137625E0,1.683399353E0,1.039154068E1,-1.550475769E0,1.064057922E1
3.078089625E0,1.969155121E0,1.030112869E1,-1.251248016E0,1.056202849E1
3.088042625E0,2.048190765E0,1.007225464E1,-9.072633362E-1,1.031835867E1
3.097994625E0,2.037562866E0,9.759704590E0,-7.369175720E-1,9.997326824E0
3.107947625E0,1.957329712E0,9.318122864E0,-7.304809570E-1,9.549458400E0
3.117900625E0,1.733245697E0,8.978628845E0,-7.505392456E-1,9.175141729E0
3.127852625E0,1.621577911E0,8.853040009E0,-8.753796387E-1,9.042793917E0
3.137805625E0,1.538201294E0,8.893006897E0,-5.918692017E-1,9.044442716E0
3.147758625E0,1.458267517E0,8.983418884E0,-3.653901672E-1,9.108340627E0
3.157710625E0,1.206042023E0,9.072783051E0,-3.207829285E-1,9.158211142E0
3.167663625E0,1.054557037E0,9.042396240E0,-4.180805969E-1,9.113276672E0
3.177615625E0,9.430389404E-1,9.149273987E0,-4.532574463E-1,9.208907603E0
3.187568625E0,8.646020508E-1,9.088949432E0,-6.295907593E-1,9.151662309E0
3.197521625E0,7.403604126E-1,8.959169312E0,-5.770500183E-1,9.008209312E0
3.207473625E0,7.864645386E-1,8.720715179E0,-4.939727783E-1,8.770029009E0
3.217426625E0,8.569679260E-1,8.542735291E0,-5.255570984E-1,8.601681843E0
3.227379625E0,7.366181946E-1,8.448281708E0,-5.219645691E-1,8.496382594E0
3.237331625E0,9.541159058E-1,8.434210968E0,-7.188052368E-1,8.518387922E0
3.247284625E0,1.266965332E0,8.727750549E0,-7.740403748E-1,8.853133304E0
3.257236625E0,1.295106812E0,9.079069977E0,-3.606001282E-1,9.178063290E0
3.267189625E0,1.388213196E0,9.332343292E0,-9.580078125E-3,9.435033597E0
3.277142625E0,1.453627167E0,9.263187103E0,1.351689148E-1,9.377523014E0
3.287094625E0,1.162482605E0,9.316476288E0,3.716770935E-1,9.396075781E0
3.297047625E0,7.503895569E-1,8.959468689E0,-4.195774841E-1,9.000622697E0
3.307000625E0,5.806425476E-1,8.477321320E0,-1.111438751E0,8.569563502E0
3.316952625E0,4.942721558E-1,8.190817108E0,-7.807763672E-1,8.242778755E0
3.326905625E0,8.003855896E-1,8.066725159E0,2.923420715E-1,8.111605005E0
3.336857625E0,9.122030640E-1,8.233777771E0,9.665400696E-1,8.340348345E0
3.346810625E0,1.083297272E0,8.394393768E0,1.077160034E0,8.532271295E0
3.356763625E0,1.520088959E0,8.580307159E0,6.626719666E-1,8.739077499E0
3.366715625E0,1.865271149E0,8.788673859E0,2.059716797E-1,8.986793031E0
3.376668625E0,2.046095123E0,9.048084412E0,-4.191284180E-2,9.276642359E0
3.386621625E0,2.055226135E0,9.367669830E0,5.044509888E-2,9.590606718E0
3.396573625E0,2.112556915E0,9.491761780E0,1.633103943E-1,9.725384758E0
3.406526625E0,2.154469757E0,9.444011078E0,1.766326904E-2,9.686660785E0
3.416478625E0,2.169288940E0,9.167386322E0,-3.787124634E-1,9.428160458E0
3.426431625E0,2.153272247E0,8.840166779E0,-2.698887634E-1,9.102635332E0
3.436384625E0,1.881886597E0,8.883277130E0,6.849755859E-1,9.106223217E0
3.446336625E0,1.508263550E0,9.372908936E0,1.545985107E0,9.618542031E0
3.456289625E0,1.153800659E0,1.010009674E1,1.347348175E0,1.025468465E1
3.466242625E0,1.230141907E0,1.102352646E1,-3.043171692E-1,1.109612516E1
3.476194625E0,1.747166748E0,1.168589905E1,-2.601140900E0,1.209870911E1
3.486147625E0,2.578238525E0,1.193647797E1,-4.103566589E0,1.288278226E1
3.496099625E0,3.185974731E0,1.120988892E1,-3.274291077E0,1.210508267E1
3.506052625E0,3.281326447E0,9.733509064E0,8.178991699E-1,1.030423510E1
3.516005625E0,3.293600922E0,8.899742889E0,4.603975983E0,1.054750328E1
3.525957625E0,3.391796722E0,9.006321259E0,4.346212006E0,1.055971905E1
3.535910625E0,2.974015503E0,9.469607849E0,2.246079254E0,1.017659634E1
3.545863625E0,2.262994080E0,1.002600082E1,1.048868866E0,1.033160010E1
3.555815625E0,1.615141296E0,1.067969147E1,1.080752563E-1,1.080167448E1
3.565768625E0,1.114282837E0,1.130733627E1,-6.578819275E-1,1.138113740E1
3.575720625E0,8.141569519E-1,1.148322052E1,-7.442523193E-1,1.153607891E1
3.585673625E0,8.373587036E-1,1.088790848E1,4.760101318E-1,1.093043029E1
3.595626625E0,1.241218872E0,1.056068893E1,2.237696686E0,1.086628094E1
3.605578625E0,1.376238098E0,1.033750305E1,3.404819641E0,1.097045110E1
3.615531625E0,1.224753113E0,1.041309586E1,3.547772369E0,1.106884250E1
3.625484625E0,7.711962891E-1,1.049946625E1,2.773133240E0,1.088686379E1
3.635436625E0,3.582051086E-1,1.016910324E1,2.271526337E0,1.042587184E1
3.645389625E0,2.682421875E-1,9.385632477E0,2.404300232E0,9.692404782E0
3.655341625E0,5.324427795E-1,8.276588745E0,2.862647095E0,8.773834108E0
3.665294625E0,1.140478363E0,7.328161011E0,3.649710388E0,8.265774048E0
3.675247625E0,1.868863678E0,6.972201233E0,3.848347321E0,8.180098935E0
3.685199625E0,2.448757782E0,7.005132751E0,3.795956268E0,8.335321441E0
3.695152625E0,2.840343475E0,7.429500275E0,4.894072723E0,9.339002795E0
3.705105625E0,3.135679321E0,8.059091034E0,5.829477539E0,1.042900961E1
3.715057625E0,2.641856232E0,8.186176758E0,5.198389893E0,1.005067917E1
3.725010625E0,1.820514221E0,8.240962830E0,4.149221649E0,9.404455363E0
3.734962625E0,8.928932190E-1,8.854686584E0,5.420078888E0,1.042017217E1
3.744915625E0,3.573069763E-1,1.024230103E1,7.965086517E0,1.297979206E1
3.754868625E0,-5.584886169E-1,1.162437698E1,9.263785858E0,1.487466901E1
3.764820625E0,-2.575394440E0,1.226729004E1,6.038143616E0,1.391323973E1
3.774773625E0,-4.777914276E0,1.234527786E1,4.447102203E0,1.396463635E1
3.784725625E0,-6.025420074E0,1.250634293E1,5.594915314E0,1.496721009E1
3.794678625E0,-5.846092987E0,1.208287354E1,4.239633636E0,1.407647433E1
3.804631625E0,-3.840563507E0,1.080498093E1,4.723277893E0,1.240189078E1
3.814583625E0,-9.357041931E-1,8.648565216E0,5.314099274E0,1.019376642E1
3.824536625E0,1.428928528E0,6.220913544E0,7.253915405E0,9.662343958E0
3.834489625E0,1.966311035E0,4.720882874E0,7.927814026E0,9.434158649E0
3.844441625E0,1.576671295E0,3.311713257E0,7.931107178E0,8.738180482E0
3.854394625E0,9.262738037E-1,2.217039642E0,8.382867737E0,8.720419682E0
3.864346625E0,3.603007507E-1,1.532064056E0,8.021219788E0,8.174166856E0
3.874299625E0,-3.484753418E-1,9.999206543E-1,6.952142944E0,7.032323080E0
3.884252625E0,-9.876461792E-1,8.056246948E-1,5.672454071E0,5.813880917E0
3.894204625E0,-1.254990234E0,9.589059448E-1,4.921316071E0,5.168544569E0
3.904157625E0,-8.767268372E-1,1.728605347E0,5.395080872E0,5.732680351E0
3.914110625E0,-4.954696655E-1,2.833757172E0,5.739664307E0,6.420234906E0
3.924062625E0,-5.972579956E-2,4.203109589E0,5.917943573E0,7.258908562E0
3.934015625E0,-2.948867798E-2,5.542374573E0,4.939428406E0,7.424064821E0
3.943967625E0,-7.246430969E-1,6.466552734E0,4.545148315E0,7.937240395E0
3.953920625E0,-1.628463593E0,7.265740814E0,4.747826843E0,8.830897066E0
3.963873625E0,-2.323468323E0,7.904911652E0,4.709356842E0,9.490214704E0
3.973825625E0,-2.624492340E0,8.227041779E0,4.152963867E0,9.582238014E0
3.983778625E0,-2.360890503E0,7.982899475E0,3.678600311E0,9.101241028E0
3.993731625E0,-1.725312195E0,7.361691284E0,3.530258789E0,8.344694593E0
4.003683625E0,-6.957531738E-1,7.047794037E0,3.867357788E0,8.069196337E0
4.013636625E0,1.401086426E-1,7.225474548E0,3.400328979E0,7.986823527E0
4.023587875E0,5.526507568E-1,7.547005920E0,2.578837280E0,7.994568340E0
4.033540875E0,6.544390869E-1,7.519612885E0,1.634750519E0,7.723035524E0
4.043493875E0,8.328680420E-1,7.776927795E0,1.986219635E0,8.069655727E0
4.053445875E0,1.200952606E0,8.458310852E0,4.047133942E0,9.453285290E0
4.063398875E0,1.281634827E0,9.974358215E0,5.785618744E0,1.160188751E1
4.073351875E0,1.556163940E0,1.065439407E1,6.205495605E0,1.242762789E1
4.083303875E0,1.343306580E0,1.029499146E1,6.882238312E0,1.245618424E1
4.093256875E0,2.221380615E-1,1.032762360E1,7.020999756E0,1.249013979E1
4.103208875E0,-1.373693390E0,1.066337540E1,7.700137482E0,1.322447449E1
4.113161875E0,-4.160148926E0,1.341719879E1,8.830736389E0,1.659246720E1
4.123114875E0,-5.310656433E0,1.803479645E1,1.174801987E1,2.216918865E1
4.133066875E0,-1.886976013E0,7.732170868E0,1.022284149E1,1.295583394E1
4.143019875E0,-1.704355774E0,4.842130737E0,1.034199371E1,1.154590372E1
4.152971875E0,-2.600991211E0,7.121740265E0,1.019380188E1,1.270424876E1
4.162924875E0,-6.629713440E-1,6.520740051E0,9.167835388E0,1.126981755E1
4.172877875E0,5.209167480E-1,8.034841461E0,8.095764771E0,1.141803130E1
4.182829875E0,1.119222565E0,9.368567963E0,7.929310913E0,1.232463778E1
4.192782875E0,2.732717285E0,5.444627838E0,6.721622314E0,9.071489547E0
4.202735875E0,1.157393188E0,1.080049026E1,9.172026672E0,1.421675850E1
4.212687875E0,2.793191528E-1,1.129521149E1,7.570806427E0,1.360062247E1
4.222640875E0,-1.405577087E-1,1.040606049E1,7.475005646E0,1.281333527E1
4.232592875E0,-4.293072510E-1,9.640103302E0,7.747139740E0,1.237473517E1
4.242545875E0,-3.450325012E-1,9.365873566E0,8.413703613E0,1.259480224E1
4.252498875E0,3.933819580E-1,9.323661346E0,7.770191803E0,1.214336407E1
4.262450875E0,5.995033264E-1,9.612410889E0,7.444469147E0,1.217283731E1
4.272403875E0,1.078207855E0,1.160836029E1,9.278754730E0,1.490006209E1
4.282356875E0,1.246907043E0,9.641600189E0,9.292226715E0,1.344844633E1
4.292308875E0,3.688330078E-1,7.644902344E0,8.341104584E0,1.132053865E1
4.302261875E0,3.932322693E-1,7.444469147E0,8.444689178E0,1.126443642E1
4.312213875E0,3.797602844E-1,7.008276215E0,8.269852753E0,1.084668696E1
4.322166875E0,1.631607056E-2,7.313790894E0,7.922425232E0,1.078223655E1
4.332119875E0,2.755769348E-1,7.516319733E0,8.172704773E0,1.110693964E1
4.342071875E0,5.191204834E-1,7.327113190E0,8.436605988E0,1.118625918E1
4.352024875E0,4.959187317E-1,7.257058868E0,8.681197357E0,1.132581239E1
4.361977875E0,3.631448364E-1,7.141948242E0,8.783135376E0,1.132619821E1
4.371929875E0,1.821711731E-1,6.801107025E0,9.060957642E0,1.133089566E1
4.381882875E0,3.082090759E-1,6.776408386E0,9.185498657E0,1.141876040E1
4.391834875E0,5.858816528E-1,7.088060303E0,8.940009155E0,1.142399317E1
4.401787875E0,4.694238281E-1,7.140301666E0,8.211773529E0,1.089208387E1
4.411740875E0,5.388793945E-3,7.447013855E0,7.946076050E0,1.089027865E1
4.421692875E0,-5.390290833E-1,7.424560547E0,7.395670624E0,1.049335960E1
4.431645875E0,-6.722520447E-1,7.295379181E0,5.513933716E0,9.169402665E0
4.441597875E0,5.737568665E-1,8.017776947E0,5.092859344E0,9.515837347E0
4.451550875E0,1.766925659E0,8.176596680E0,6.185137939E0,1.040359029E1
4.461503875E0,2.218686218E0,7.887248383E0,7.011419678E0,1.078384261E1
4.471455875E0,2.269281006E0,8.275989990E0,6.704108734E0,1.088975301E1
4.481408875E0,2.282453613E0,8.304730225E0,5.982309723E0,1.048647549E1
4.491361875E0,2.435435486E0,8.486901398E0,5.680088196E0,1.049867817E1
4.501313875E0,2.370620270E0,8.242908783E0,5.966293030E0,1.044806385E1
4.511266875E0,1.916764069E0,8.077502747E0,6.167923737E0,1.034230721E1
4.521218875E0,1.907782745E0,9.800569611E0,5.066065063E0,1.119624111E1
4.531171875E0,1.730401611E0,9.022188263E0,4.270319824E0,1.013063681E1
4.541124875E0,1.291663971E0,7.780670013E0,4.231999512E0,8.950812340E0
4.551076875E0,8.466394043E-1,7.419920197E0,3.855831757E0,8.404727987E0
4.561029875E0,7.406597900E-1,7.701334991E0,4.247267761E0,8.826008215E0
4.570982875E0,1.507814484E0,7.970924377E0,4.875511322E0,9.464657976E0
4.580934875E0,2.386487274E0,7.615263977E0,5.557642822E0,9.724965845E0
4.590887875E0,2.712060242E0,7.274422760E0,5.532495117E0,9.533152651E0
4.600839875E0,2.889291687E0,7.083270264E0,5.054539032E0,9.168919724E0
4.610792875E0,2.462678833E0,7.021448822E0,4.856500854E0,8.885444904E0
4.620745875E0,1.707798615E0,7.102280731E0,5.246589661E0,8.993646133E0
4.630697875E0,9.705816650E-1,7.334597626E0,5.301974487E0,9.102158237E0
4.640650875E0,6.978488159E-1,7.403903503E0,4.919519806E0,8.916639231E0
4.650602875E0,1.152752838E0,7.356003113E0,4.840334473E0,8.880791559E0
4.660555875E0,1.913770294E0,7.394772491E0,5.009333038E0,9.134472860E0
4.670508875E0,2.440973969E0,7.450157318E0,5.252128143E0,9.436527328E0
4.680460875E0,2.597398682E0,7.729326782E0,5.159470825E0,9.649306276E0
4.690413875E0,2.241588593E0,8.005652161E0,5.183271332E0,9.797014220E0
4.700366875E0,1.754651184E0,8.238717499E0,5.214705963E0,9.906988699E0
4.710318875E0,1.281036072E0,8.300838318E0,4.957241364E0,9.752907881E0
4.720271875E0,6.021977234E-1,8.343050537E0,4.555027771E0,9.524568880E0
4.730223875E0,1.077758789E-1,8.151149597E0,4.396208038E0,9.261722330E0
4.740176875E0,-7.289840698E-2,8.036787415E0,4.726720734E0,9.324009600E0
4.750129875E0,7.155120850E-2,8.039332123E0,5.097350006E0,9.519399017E0
4.760081875E0,7.634124756E-1,7.786507874E0,5.120252380E0,9.350373678E0
4.770034875E0,1.518442383E0,7.675738220E0,5.067861328E0,9.322330338E0
4.779987875E0,2.145488434E0,7.214846649E0,4.369114380E0,8.703234643E0
4.789939875E0,2.434088287E0,6.788682861E0,3.597469025E0,8.059329015E0
4.799892875E0,2.212249603E0,6.709647217E0,3.691623230E0,7.971292000E0
4.809844875E0,1.509910126E0,6.651567993E0,4.640949097E0,8.249945083E0
4.819797875E0,6.102809143E-1,6.635551300E0,5.938151550E0,8.925504338E0
4.829750875E0,-4.584965515E-1,6.776558075E0,7.180717621E0,9.884061108E0
4.839702875E0,-1.412013702E0,7.005282440E0,6.852001190E0,9.900388127E0
4.849655875E0,-1.727707214E0,7.514673157E0,6.188131714E0,9.886771919E0
4.859607875E0,-1.520538025E0,7.766150208E0,6.333928528E0,1.013626043E1
4.869560875E0,-7.396119690E-1,7.915240173E0,6.698719940E0,1.039571555E1
4.879513875E0,1.941462708E-1,8.512797546E0,6.521039429E0,1.072517459E1
4.889465875E0,9.963281250E-1,9.089997253E0,5.453758850E0,1.064726281E1
4.899418875E0,1.470691681E0,8.987610168E0,4.561763763E0,1.018576257E1
4.909371875E0,1.327589264E0,8.774154053E0,4.566104736E0,9.979858970E0
4.919323875E0,9.864486694E-1,8.418044586E0,4.316873016E0,9.511674315E0
4.929276875E0,7.294331360E-1,7.378606110E0,4.129163361E0,8.486806872E0
4.939228875E0,3.131488037E-1,6.697672119E0,4.610113220E0,8.136953846E0
4.949181875E0,-1.474433899E-1,6.064638519E0,5.466332703E0,8.165927574E0
4.959134875E0,-4.327500916E-1,6.023474121E0,4.747228088E0,7.681515974E0
4.969086875E0,-3.594026184E-1,7.170538788E0,5.256469116E0,8.898104535E0
4.979039875E0,-4.596940613E-1,7.931406555E0,6.014343109E0,9.964479495E0
4.988991875E0,-9.145980835E-1,8.436755676E0,6.067632294E0,1.043223359E1
4.998944875E0,-1.313967590E0,8.538993073E0,5.449118500E0,1.021439210E1
5.008897875E0,-1.521885223E0,8.242759094E0,4.610711975E0,9.566497637E0
5.018850500E0,-1.182241516E0,7.968379669E0,4.395309906E0,9.176683427E0
5.028803500E0,-4.312532043E-1,8.185128937E0,4.693639526E0,9.445240444E0
5.038756500E0,3.597019958E-1,8.184829559E0,5.056335297E0,9.627426815E0
5.048708500E0,9.830058289E-1,8.042176208E0,5.213059387E0,9.634255903E0
5.058661500E0,1.334774323E0,7.880662079E0,5.103636932E0,9.483331020E0
5.068613500E0,1.391656036E0,7.398664398E0,5.300028534E0,9.206912830E0
5.078566500E0,1.323547668E0,6.958130493E0,5.527555389E0,8.984499261E0
5.088519500E0,1.290915527E0,6.776558075E0,5.628146210E0,8.903046220E0
5.098471500E0,1.406624908E0,6.764283600E0,5.445975037E0,8.797316088E0
5.108424500E0,1.727856903E0,7.288343811E0,5.564378815E0,9.331010480E0
5.118376500E0,2.021396484E0,7.467970276E0,5.405559082E0,9.438044966E0
5.128329500E0,2.233804779E0,7.677085419E0,4.838089142E0,9.345299934E0
5.138282500E0,2.559078369E0,7.683372345E0,4.456981659E0,9.243796742E0
5.148234500E0,2.862796783E0,7.757767639E0,3.744762726E0,9.077544384E0
5.158187500E0,3.121309204E0,7.618407440E0,3.240910492E0,8.847949135E0
5.168140500E0,3.489393768E0,7.597451019E0,3.773802338E0,9.172715789E0
5.178092500E0,3.497177582E0,7.603887634E0,4.822222137E0,9.659357356E0
5.188045500E0,3.455264740E0,8.004304962E0,5.698649597E0,1.041548653E1
5.197997500E0,3.449726257E0,8.212671661E0,6.553372192E0,1.105871937E1
5.207950500E0,3.098406830E0,8.294551392E0,6.932084656E0,1.124515475E1
5.217903500E0,2.760559387E0,8.239615631E0,6.965016174E0,1.113657956E1
5.227855500E0,2.500400391E0,8.406518555E0,6.747368774E0,1.106564692E1
5.237808500E0,1.994302826E0,8.397088165E0,5.878575439E0,1.044250844E1
5.247760500E0,1.900447998E0,8.177195435E0,5.309159546E0,9.933046001E0
5.257713500E0,1.686243439E0,7.861801300E0,4.868925018E0,9.399881247E0
5.267666500E0,2.119891663E0,7.277117157E0,4.914280701E0,9.033301145E0
5.277618500E0,2.744991760E0,6.831344147E0,5.536237335E0,9.211523568E0
5.287571500E0,2.933300171E0,6.602170715E0,6.115832062E0,9.465532730E0
5.297524500E0,2.967129822E0,6.793323212E0,6.284231873E0,9.718264756E0
5.307476500E0,2.696342926E0,7.225025482E0,5.944139099E0,9.736737032E0
5.317429500E0,2.692151642E0,7.633076935E0,5.794749756E0,9.954429601E0
5.327381500E0,2.572849731E0,7.837252350E0,4.487368469E0,9.390343759E0
5.337334500E0,2.375709686E0,7.632328491E0,2.752925262E0,8.454290757E0
5.347287500E0,3.306174774E0,8.072862396E0,2.396666107E0,9.046872793E0
5.357239500E0,4.469705200E0,8.826545105E0,3.147804108E0,1.038242909E1
5.367192500E0,5.656437378E0,8.718469849E0,6.034251709E0,1.201745372E1
5.377144500E0,5.287005615E0,7.254813538E0,8.964707794E0,1.268663603E1
5.387097500E0,4.251908112E0,6.659800873E0,8.694369965E0,1.174835049E1
5.397050500E0,3.646716614E0,7.295977936E0,7.934699707E0,1.137933634E1
5.407002500E0,2.707719269E0,7.491770782E0,8.355624390E0,1.154447193E1
5.416955500E0,2.143692169E0,7.876021729E0,8.496930542E0,1.178240056E1
5.426908500E0,2.318378906E0,8.113877106E0,8.552764435E0,1.201497657E1
5.436860500E0,2.645748138E0,7.961194611E0,8.107889557E0,1.166698230E1
5.446813500E0,3.298690338E0,7.798482971E0,7.300318909E0,1.117999780E1
5.456765500E0,3.555556183E0,7.823031921E0,7.001390533E0,1.108428065E1
5.466718500E0,3.331771545E0,7.920628967E0,6.666237488E0,1.087546721E1
5.476671500E0,3.074606323E0,7.784861298E0,6.251300354E0,1.044681892E1
5.486623500E0,2.865042114E0,7.525899811E0,6.383774872E0,1.027619657E1
5.496576500E0,2.983296204E0,7.147935791E0,6.327192535E0,1.000132030E1
5.506529500E0,3.398532715E0,6.898704071E0,5.649252319E0,9.542336938E0
5.516481500E0,3.837420044E0,6.919660492E0,5.483397217E0,9.626792766E0
5.526434500E0,3.938908997E0,6.793023834E0,5.638923798E0,9.667349093E0
5.536386500E0,3.840862885E0,6.690337372E0,5.732179871E0,9.610969145E0
5.546339500E0,3.882027283E0,6.731501770E0,5.942941589E0,9.782730020E0
5.556292500E0,4.094884644E0,6.847360840E0,6.635551300E0,1.037713697E1
5.566244500E0,4.321962433E0,7.245832214E0,6.685996399E0,1.076494271E1
5.576197500E0,4.327201538E0,7.618257751E0,6.194867706E0,1.073028006E1
5.586149500E0,3.973187714E0,8.007897491E0,6.057004395E0,1.079814545E1
5.596102500E0,3.581602020E0,8.474028168E0,5.980214081E0,1.097269278E1
5.606055500E0,3.597469025E0,8.597072296E0,4.844226379E0,1.050323591E1
5.616007500E0,3.469784546E0,8.455317078E0,4.844376068E0,1.034406937E1
5.625960500E0,2.587968292E0,8.418343964E0,6.261778564E0,1.080629288E1
5.635912500E0,2.440375214E0,8.350534973E0,6.674620056E0,1.096528241E1
5.645865500E0,3.143912201E0,8.137078857E0,7.023993530E0,1.119967506E1
5.655818500E0,3.157384186E0,8.043822784E0,7.237599335E0,1.127186781E1
5.665770500E0,2.310445404E0,8.040080566E0,6.951993256E0,1.087709813E1
5.675723500E0,2.923271027E0,8.602461090E0,6.159241791E0,1.097652539E1
5.685676500E0,2.509381714E0,8.178842010E0,5.732030182E0,1.029789412E1
5.695628500E0,1.418450317E0,7.703879700E0,5.992787933E0,9.862822666E0
5.705581500E0,8.425978088E-1,7.529642029E0,6.809040527E0,1.018668312E1
5.715533500E0,7.955955505E-1,7.524552612E0,7.331903229E0,1.053606517E1
5.725486500E0,1.204395447E0,7.684270477E0,7.428452454E0,1.075548637E1
5.735439500E0,2.177970886E0,7.997868347E0,6.993307343E0,1.084508197E1
5.745391500E0,3.316802673E0,8.587641907E0,6.384972382E0,1.120342117E1
5.755344500E0,3.810176697E0,9.048533478E0,6.109096069E0,1.156349685E1
5.765296500E0,3.343896332E0,9.227710876E0,6.319857788E0,1.167359812E1
5.775249500E0,2.191442871E0,9.343120880E0,6.465654602E0,1.157156079E1
5.785202500E0,9.666897583E-1,9.079519043E0,5.195845184E0,1.050566335E1
5.795154500E0,3.354524231E-1,8.653804321E0,4.508474579E0,9.763564953E0
5.805107500E0,6.521937561E-1,7.989485779E0,4.489763489E0,9.187775350E0
5.815060500E0,1.423839111E0,7.695347443E0,4.774022369E0,9.167168574E0
5.825012500E0,1.852697296E0,7.811954956E0,4.576732635E0,9.241515521E0
5.834965500E0,1.623523865E0,8.018824768E0,4.106410675E0,9.154233394E0
5.844917500E0,1.199306030E0,8.101752319E0,3.231031036E0,8.804333431E0
5.854870500E0,6.619235229E-1,7.615713043E0,2.592009888E0,8.071910751E0
5.864823500E0,1.302291870E-2,6.816075897E0,2.811154175E0,7.373035198E0
5.874775500E0,-2.498304749E-1,6.367159424E0,3.520379333E0,7.279849246E0
5.884728500E0,9.759704590E-2,6.424490204E0,3.930227051E0,7.531950892E0
5.894680500E0,9.009764099E-1,6.660100250E0,4.089196472E0,7.867033852E0
5.904633500E0,1.807640991E0,7.171885986E0,4.333638153E0,8.572277072E0
5.914586500E0,2.405198364E0,7.570656738E0,4.614753571E0,9.186717212E0
5.924538500E0,2.338437195E0,7.620503082E0,5.066963196E0,9.445341273E0
5.934491500E0,1.532812500E0,7.019353180E0,6.200555878E0,9.490401805E0
5.944443500E0,3.829037476E-1,6.429579620E0,7.355853424E0,9.777253652E0
5.954396500E0,-4.840933228E-1,6.515800323E0,6.735693054E0,9.384005601E0
5.964349500E0,-7.276368713E-1,6.812034302E0,5.319338379E0,8.673443811E0
5.974301500E0,-1.131946106E0,7.341932373E0,5.436694336E0,9.205591684E0
5.984254500E0,-1.611698456E0,8.009244690E0,5.942791901E0,1.010259115E1
5.994207500E0,-1.728605347E0,8.695417786E0,6.430028687E0,1.095187819E1
6.004159500E0,-1.409918060E0,9.078171844E0,6.747967529E0,1.139895341E1
6.014112500E0,-8.199948120E-1,9.012159119E0,6.341113586E0,1.104993778E1
6.024064042E0,-6.930587769E-2,8.799750824E0,5.694308624E0,1.048167776E1
6.034017042E0,4.698728943E-1,8.574768677E0,5.250032501E0,1.006530077E1
6.043970042E0,7.897576904E-1,8.182284851E0,4.851411438E0,9.545139891E0
6.053922042E0,8.107141113E-1,7.502847748E0,4.620292053E0,8.848563745E0
6.063875042E0,6.277944946E-1,6.860533447E0,4.291875000E0,8.116725702E0
6.073827042E0,4.475692749E-1,6.699468384E0,4.356241150E0,8.003751110E0
6.083780042E0,1.538800049E-1,6.596632233E0,4.600383453E0,8.043802819E0
6.093733042E0,-2.550695801E-1,6.461014252E0,3.778442688E0,7.489085044E0
6.103685042E0,-3.302133179E-1,7.270381165E0,4.071233826E0,8.339210273E0
6.113638042E0,-3.097059631E-1,7.686366119E0,4.748874664E0,9.040351347E0
6.123591042E0,-6.815327454E-1,7.648195496E0,4.471651154E0,8.885665156E0
6.133543042E0,-1.262624359E0,7.560627594E0,4.765490112E0,9.025918563E0
6.143496042E0,-1.769170990E0,7.582781525E0,5.140160980E0,9.330048046E0
6.153448042E0,-2.127825165E0,7.695946198E0,4.636009369E0,9.232974097E0
6.163401042E0,-2.268831940E0,7.909252625E0,4.752766571E0,9.502245289E0
6.173354042E0,-2.109413452E0,7.776778107E0,4.716841278E0,9.336835357E0
6.183306042E0,-1.486708374E0,7.633975067E0,3.760330353E0,8.638747680E0
6.193259042E0,-1.039288788E0,7.850574646E0,3.898493042E0,8.826658000E0
6.203211042E0,-8.334667969E-1,8.018675079E0,4.189936981E0,9.085669421E0
6.213164042E0,-3.224295044E-1,8.089328156E0,5.260810089E0,9.654911371E0
6.223117042E0,3.736230469E-1,8.249644775E0,6.141428833E0,1.029142270E1
6.233069042E0,7.331753540E-1,8.587192841E0,5.477858734E0,1.021197157E1
6.243022042E0,8.102650452E-1,8.875044250E0,5.217400360E0,1.032686818E1
6.252974042E0,9.345066833E-1,9.325158234E0,5.558241577E0,1.089614282E1
6.262927042E0,9.821076965E-1,9.528136139E0,5.374423828E0,1.098336676E1
6.272880042E0,1.360221405E0,9.182355194E0,5.349276123E0,1.071357103E1
6.282832042E0,1.969155121E0,8.415200500E0,5.680836639E0,1.034239219E1
6.292785042E0,2.401905212E0,8.279582520E0,6.182742920E0,1.060881451E1
6.302737042E0,2.124831390E0,8.934770050E0,6.670877838E0,1.135101914E1
6.312690042E0,1.257235565E0,9.353748779E0,7.405849457E0,1.199666052E1
6.322643042E0,8.159532166E-1,9.443711700E0,7.691006470E0,1.220659866E1
6.332595042E0,1.513951721E0,9.020841064E0,7.290888519E0,1.169720816E1
6.342548042E0,2.226170654E0,7.251221008E0,6.804250488E0,1.018989041E1
6.352501042E0,2.141746216E0,6.123017120E0,6.300697632E0,9.043075039E0
6.362453042E0,1.633553009E0,6.170618134E0,5.555846558E0,8.462414227E0
6.372406042E0,9.310638428E-1,7.139253845E0,5.392536163E0,8.995291636E0
6.382358042E0,3.915856934E-1,8.456813965E0,5.963598633E0,1.035545993E1
6.392311042E0,5.448669434E-2,8.968749390E0,6.453380127E0,1.104932349E1
6.402264042E0,1.380130005E-1,8.836424561E0,6.582411804E0,1.101950960E1
6.412216042E0,5.995033264E-1,8.194559326E0,6.703060913E0,1.060383102E1
6.422169042E0,8.017327881E-1,7.477400665E0,6.524781647E0,9.956257917E0
6.432121042E0,9.117539978E-1,7.047644348E0,5.673651581E0,9.093454155E0
6.442074042E0,1.517394562E0,7.311994629E0,5.424719238E0,9.230131663E0
6.452027042E0,2.473306732E0,7.512427826E0,5.730533295E0,9.766925303E0
6.461979042E0,3.257076874E0,7.524103546E0,5.849386139E0,1.007154418E1
6.471932042E0,3.336411896E0,7.274722137E0,5.678142242E0,9.812977420E0
6.481884042E0,3.061134338E0,7.415728912E0,5.519472198E0,9.737974743E0
6.491837042E0,2.584226074E0,7.789351959E0,5.799689484E0,1.004930975E1
6.501790042E0,1.921703796E0,7.921377411E0,6.141279144E0,1.020570797E1
6.511742042E0,1.363215179E0,8.079149323E0,6.137686615E0,1.023729488E1
6.521695042E0,1.325343933E0,8.094567261E0,6.181545410E0,1.027083538E1
6.531648042E0,1.622176666E0,7.681276703E0,5.999823303E0,9.880857685E0
6.541600042E0,1.756597137E0,7.145840149E0,5.781726837E0,9.358259996E0
6.551553042E0,2.041604462E0,6.863527222E0,5.244344330E0,8.875770510E0
6.561505042E0,2.528990936E0,7.292684784E0,4.878954163E0,9.131442396E0
6.571458042E0,3.466341705E0,8.115373993E0,4.372108154E0,9.848357710E0
6.581411042E0,4.459226990E0,8.736282806E0,3.260370026E0,1.033621572E1
6.591363042E0,4.586761780E0,8.774303741E0,3.669319611E0,1.055891548E1
6.601316042E0,3.519481201E0,8.096962280E0,7.244634705E0,1.142069517E1
6.611268042E0,2.269580383E0,7.744295654E0,1.063987427E1,1.335410179E1
6.621221042E0,1.740131378E0,7.946525116E0,1.143816422E1,1.403591533E1
6.631174042E0,1.123862915E0,7.954907684E0,1.035636383E1,1.310716964E1
6.641126042E0,5.816903687E-1,7.457192688E0,8.285570068E0,1.116238137E1
6.651079042E0,8.921447754E-1,7.477999420E0,8.231083374E0,1.115648382E1
6.661031042E0,1.188229065E0,7.166048126E0,8.697962494E0,1.133219686E1
6.670984042E0,1.586101685E0,7.490124207E0,7.387437744E0,1.063916893E1
6.680937042E0,1.757195892E0,7.736062775E0,6.092779999E0,1.000281824E1
6.690889042E0,1.516795807E0,7.406148834E0,5.814957733E0,9.537580590E0
6.700842042E0,1.332678680E0,7.053332520E0,6.291416931E0,9.545022740E0
6.710795042E0,1.104104004E0,6.638395386E0,6.570436707E0,9.405210123E0
6.720747042E0,8.412506104E-1,6.253695374E0,5.934559021E0,8.662297570E0
6.730700042E0,6.918612671E-1,6.414311371E0,5.476062469E0,8.462229171E0
6.740652042E0,8.378077698E-1,6.640940094E0,5.749693451E0,8.824000338E0
6.750605042E0,1.570384369E0,7.454647980E0,6.151907043E0,9.792029608E0
6.760558042E0,3.646267548E0,9.762997742E0,6.240672455E0,1.214732006E1
6.770510042E0,3.931424561E0,9.068292389E0,6.114484863E0,1.162226101E1
6.780463042E0,1.664239197E0,5.923482056E0,5.730233917E0,8.407907737E0
6.790415042E0,7.861651611E-1,5.503006439E0,4.751119995E0,7.312610802E0
6.800368042E0,2.262545013E0,7.280260620E0,4.011358337E0,8.614656136E0
6.810321042E0,2.781216431E0,7.358847198E0,4.243974609E0,8.938630623E0
6.820273042E0,1.981429596E0,6.540349274E0,5.371280365E0,8.692116234E0
6.830226042E0,1.479373627E0,6.464756470E0,6.378835144E0,9.201693341E0
6.840178042E0,1.283580780E0,6.329737244E0,6.707102509E0,9.311196338E0
6.850131042E0,1.235081635E0,6.267466736E0,7.162904663E0,9.597591841E0
6.860084042E0,2.151475983E0,6.543193359E0,7.467820587E0,1.015926043E1
6.870036042E0,2.823278961E0,6.999594269E0,6.816974030E0,1.017036671E1
6.879989042E0,3.958518219E0,9.014105072E0,6.332731018E0,1.170587198E1
6.889941042E0,4.106111298E0,9.649084625E0,6.350693665E0,1.225953890E1
6.899894042E0,3.269051971E0,9.319470062E0,5.959257660E0,1.153481577E1
6.909847042E0,2.480192413E0,9.289232941E0,5.621859283E0,1.113761666E1
6.919799042E0,2.111958160E0,8.868757324E0,6.025120697E0,1.092782243E1
6.929752042E0,2.032323761E0,8.552465057E0,6.132447510E0,1.071829795E1
6.939705042E0,2.222877502E0,8.256979523E0,5.752836914E0,1.030601901E1
6.949657042E0,2.331551514E0,7.775580597E0,5.326373749E0,9.709070161E0
6.959610042E0,2.154170380E0,7.459737396E0,5.071753235E0,9.274201471E0
6.969562042E0,2.029030609E0,7.510781250E0,5.308710480E0,9.418662705E0
6.979515042E0,1.887125702E0,7.644752655E0,5.003794556E0,9.329600556E0
6.989468042E0,1.711840210E0,8.073311462E0,4.971162415E0,9.634376504E0
6.999420042E0,1.437460785E0,8.324638824E0,5.398374023E0,1.002538514E1
7.009373042E0,1.413061523E0,9.028624878E0,5.972430267E0,1.091708447E1
7.019326000E0,1.561403046E0,9.470955048E0,5.809119873E0,1.121975235E1
7.029279000E0,1.623673553E0,9.259295197E0,4.725373535E0,1.052140762E1
7.039232000E0,1.775757294E0,8.918304291E0,3.933969269E0,9.907854440E0
7.049184000E0,1.969005432E0,8.472680969E0,3.684737549E0,9.446724088E0
7.059137000E0,1.901795197E0,7.951015778E0,3.484154663E0,8.886777289E0
7.069089000E0,1.672322388E0,7.632627869E0,3.285218353E0,8.476221445E0
7.079042000E0,1.454525299E0,7.641609192E0,3.812422028E0,8.662816898E0
7.088995000E0,1.336420898E0,7.588619385E0,4.324207764E0,8.835832602E0
7.098947000E0,9.235794067E-1,7.424111481E0,4.284240875E0,8.621203517E0
7.108900000E0,2.818638611E-1,7.363038483E0,5.193749542E0,9.014921921E0
7.118852000E0,-4.962181091E-1,7.658823395E0,6.852450256E0,1.028882319E1
7.128805000E0,-1.033450928E0,8.022417297E0,6.703360291E0,1.050534337E1
7.138758000E0,-1.177152100E0,8.202792206E0,5.637875977E0,1.002283057E1
7.148710000E0,-1.384321289E0,7.969427490E0,5.109624481E0,9.567464779E0
7.158663000E0,-1.348845062E0,7.678133240E0,5.154381409E0,9.345627895E0
7.168615000E0,-1.136137390E0,7.827971649E0,5.773194580E0,9.792738328E0
7.178568000E0,-9.539662170E-1,8.120014343E0,6.418203278E0,1.039413382E1
7.188521000E0,-7.235952759E-1,8.361462250E0,6.134094086E0,1.039541973E1
7.198473000E0,-2.942880249E-1,8.387059021E0,5.389692078E0,9.973873127E0
7.208426000E0,1.742376709E-1,8.554710388E0,5.159620514E0,9.991752221E0
7.218379000E0,4.299060059E-1,8.897647247E0,5.170398102E0,1.029980399E1
7.228331000E0,3.219804382E-1,8.696764984E0,4.984784088E0,1.002923053E1
7.238284000E0,1.297801208E-1,8.439749451E0,4.894372101E0,9.757104690E0
7.248236000E0,-5.777984619E-2,8.104596405E0,4.762646027E0,9.400564801E0
7.258189000E0,-2.094145203E-1,8.087831268E0,4.336182861E0,9.179289236E0
7.268142000E0,-1.407073975E-2,8.681796112E0,5.279670868E0,1.016113705E1
7.278094000E0,1.627116394E-1,8.656199341E0,5.252876587E0,1.012664676E1
7.288047000E0,1.454974365E-1,8.441246338E0,5.020110626E0,9.822286900E0
7.297999000E0,1.751358032E-1,8.173303528E0,5.061574402E0,9.615253431E0
7.307952000E0,1.520837402E-1,7.758366394E0,5.085674286E0,9.277901784E0
7.317905000E0,-5.074447632E-2,7.645052032E0,5.104684753E0,9.192779885E0
7.327857000E0,-2.127076721E-1,7.712561646E0,5.086273041E0,9.241159296E0
7.337810000E0,-2.176473999E-1,7.753726044E0,4.937781830E0,9.195070818E0
7.347762000E0,-2.465373230E-1,7.849975891E0,4.954846344E0,9.286194292E0
7.357715000E0,-3.156935120E-1,7.876620483E0,5.780828705E0,9.775417799E0
7.367668000E0,-3.308120728E-1,7.672445068E0,6.303691406E0,9.935410173E0
7.377620000E0,-3.948788452E-1,7.515571289E0,5.355563049E0,9.236979846E0
7.387573000E0,-2.372566223E-1,7.810158691E0,4.581522675E0,9.057881624E0
7.397525000E0,-1.008901978E-1,8.576714630E0,4.499044189E0,9.685639437E0
7.407478000E0,-8.517288208E-1,9.198072510E0,5.959257660E0,1.099284912E1
7.417431000E0,-1.422491913E0,8.373587036E0,7.826175385E0,1.154943567E1
7.427383000E0,-1.212628326E0,7.514523468E0,6.910230103E0,1.028055497E1
7.437336000E0,-8.137078857E-1,7.268584900E0,5.484295349E0,9.141769109E0
7.447288000E0,1.249900818E-1,7.221732330E0,4.880750427E0,8.717268213E0
7.457241000E0,1.135239258E0,7.241790619E0,4.914280701E0,8.825103645E0
7.467194000E0,2.112556915E0,7.404053192E0,5.004093933E0,9.182802213E0
7.477146000E0,2.917582855E0,7.500901794E0,5.059029694E0,9.506292594E0
7.487099000E0,3.218307495E0,7.681875458E0,5.295986938E0,9.869964100E0
7.497052000E0,3.331023102E0,7.636819153E0,5.908962250E0,1.021433094E1
7.507004000E0,2.979703674E0,7.942184143E0,6.858138428E0,1.090829893E1
7.516957000E0,2.166145477E0,8.126450958E0,7.597001953E0,1.133339446E1
7.526909000E0,1.072968750E0,7.753127289E0,7.955356750E0,1.116019470E1
7.536862000E0,7.012916565E-1,7.320227509E0,7.758965149E0,1.069013943E1
7.546815000E0,7.631130981E-1,7.171586609E0,7.115453339E0,1.013132135E1
7.556767000E0,8.397537231E-1,7.281009064E0,7.148833923E0,1.023836441E1
7.566720000E0,8.054750061E-1,7.134613495E0,7.321724396E0,1.025471344E1
7.576672000E0,8.994795227E-1,7.124584351E0,7.211553497E0,1.017719359E1
7.586625000E0,1.118174744E0,7.149432678E0,7.187004547E0,1.019890861E1
7.596578000E0,1.371597748E0,7.018754425E0,6.903194733E0,9.939732973E0
7.606530000E0,1.716330872E0,7.217990112E0,6.473588104E0,9.846446865E0
7.616483000E0,2.006277924E0,7.240742798E0,6.181096344E0,9.729309296E0
7.626435000E0,2.020797729E0,7.102729797E0,5.906866608E0,9.456398213E0
7.636388000E0,2.044448547E0,7.292984161E0,6.036646729E0,9.685478386E0
7.646341000E0,1.984423370E0,7.620802460E0,6.389612732E0,1.014109053E1
7.656293000E0,2.301913147E0,7.516469421E0,6.390061798E0,1.013059754E1
7.666246000E0,2.640209656E0,7.300318909E0,6.518644409E0,1.013696642E1
7.676198000E0,2.846929779E0,7.232958984E0,6.416706390E0,1.007942586E1
7.686151000E0,2.787353668E0,7.244485016E0,6.453679504E0,1.009464624E1
7.696104000E0,2.593955841E0,7.055877228E0,6.574927368E0,9.987175790E0
7.706056000E0,2.562970276E0,6.888824615E0,6.563551025E0,9.854183035E0
7.716009000E0,2.798131256E0,6.937473450E0,6.216123505E0,9.726164085E0
7.725961000E0,3.086880798E0,7.103927307E0,5.738317108E0,9.639652456E0
7.735914000E0,3.197800140E0,7.319479065E0,5.209466858E0,9.536207027E0
7.745867000E0,3.143463135E0,7.574548645E0,4.774471436E0,9.489506054E0
7.755819000E0,3.387306061E0,8.017776947E0,3.740571442E0,9.473672162E0
7.765772000E0,3.514391785E0,7.660769348E0,4.943769379E0,9.771345470E0
7.775724000E0,3.077749786E0,6.726711731E0,7.068002014E0,1.023121923E1
7.785677000E0,3.104544067E0,6.646777954E0,7.627538452E0,1.058287267E1
7.795630000E0,3.592978363E0,7.481741638E0,8.509504395E0,1.188686740E1
7.805582000E0,3.378025360E0,8.261021118E0,8.207133179E0,1.212487362E1
7.815535000E0,2.458038483E0,8.091573486E0,7.295379181E0,1.116861997E1
7.825487000E0,1.613644409E0,7.653135223E0,6.975344696E0,1.047996950E1
7.835440000E0,1.411564636E0,7.520061951E0,7.322173462E0,1.059047075E1
7.845393000E0,1.564696198E0,7.416627045E0,7.505242767E0,1.066692551E1
7.855345000E0,1.704804840E0,7.347321167E0,7.246580658E0,1.045956113E1
7.865298000E0,1.918260956E0,7.190447388E0,7.245383148E0,1.038642555E1
7.875251000E0,2.111060028E0,6.872957611E0,7.153773651E0,1.014251439E1
7.885203000E0,2.347268829E0,6.712940369E0,6.848558350E0,9.872993002E0
7.895156000E0,2.186952209E0,6.784491577E0,6.877298584E0,9.905014979E0
7.905108000E0,1.964514771E0,6.947053528E0,7.007378082E0,1.006102473E1
7.915061000E0,1.640289001E0,7.038363647E0,6.878945160E0,9.977424385E0
7.925014000E0,1.367855530E0,7.153174896E0,6.585106201E0,9.818480714E0
7.934966000E0,1.273252258E0,7.383695526E0,6.040239258E0,9.624168599E0
7.944919000E0,1.554068298E0,7.484585724E0,6.045777740E0,9.746054598E0
7.954871000E0,1.882036285E0,7.464527435E0,6.409072266E0,1.001685768E1
7.964824000E0,1.863923950E0,7.327711945E0,6.595734100E0,1.003360768E1
7.974777000E0,1.870659943E0,7.145989838E0,6.837182007E0,1.006536622E1
7.984729000E0,1.953737183E0,7.001540222E0,6.962621155E0,1.006562208E1
7.994682000E0,2.183359680E0,6.977440338E0,7.097490692E0,1.018950967E1
8.004634000E0,2.461631012E0,6.850504303E0,6.841672668E0,9.989870937E0
8.014587000E0,2.478246460E0,6.875951385E0,5.656886444E0,9.242336134E0
8.024539625E0,2.221679993E0,6.942263489E0,5.022056580E0,8.851662930E0
8.034491625E0,2.253114624E0,7.391778717E0,4.654720459E0,9.021160716E0
8.044444625E0,2.298170929E0,7.499105530E0,4.566104736E0,9.075653466E0
8.054396625E0,2.611619110E0,7.540718994E0,4.563709717E0,9.192956200E0
8.064349625E0,2.640958099E0,7.358248444E0,4.803361359E0,9.175552309E0
8.074302625E0,2.769241333E0,7.039112091E0,4.579427032E0,8.842451500E0
8.084254625E0,2.335443420E0,6.900500336E0,5.004243622E0,8.838192976E0
8.094207625E0,1.556014252E0,6.522087250E0,5.601800995E0,8.737217911E0
8.104159625E0,1.803300018E0,6.603068848E0,5.973178711E0,9.084672425E0
8.114112625E0,2.418071594E0,6.828350372E0,6.544690247E0,9.762500165E0
8.124065625E0,3.273243256E0,7.160060577E0,6.715335388E0,1.034776876E1
8.134017625E0,4.206402740E0,7.430248718E0,6.692582703E0,1.084864431E1
8.143970625E0,4.197720795E0,7.622299347E0,6.884783020E0,1.109596974E1
8.153922625E0,3.830833740E0,7.705675964E0,6.771917725E0,1.095041547E1
8.163875625E0,3.821553040E0,7.376211090E0,5.832770691E0,1.015056509E1
8.173828625E0,3.761827240E0,7.302863617E0,5.304219818E0,9.778441035E0
8.183780625E0,3.437601471E0,7.254065094E0,5.086273041E0,9.503090955E0
8.193733625E0,3.034789124E0,7.036417694E0,5.226082306E0,9.275400544E0
8.203685625E0,2.670446777E0,7.451803894E0,5.531297607E0,9.656910504E0
8.213638625E0,2.592458954E0,7.516020355E0,5.553451538E0,9.698052866E0
8.223591625E0,2.605332184E0,7.310647430E0,5.738915863E0,9.652381930E0
8.233543625E0,2.778671722E0,7.651788025E0,5.560337219E0,9.858408924E0
8.243496625E0,2.876568146E0,7.574997711E0,5.640121307E0,9.872497302E0
8.253448625E0,2.874771881E0,7.744445343E0,5.569917297E0,9.963168459E0
8.263401625E0,2.852168884E0,8.090375977E0,5.491480408E0,1.018554897E1
8.273354625E0,2.528691559E0,7.874375153E0,5.595065002E0,9.985229964E0
8.283306625E0,2.361040192E0,8.154742126E0,5.384003906E0,1.005295121E1
8.293259625E0,2.397414551E0,8.344697113E0,5.414390717E0,1.023216464E1
8.303212625E0,2.064955902E0,7.992778931E0,5.937403107E0,1.016864364E1
8.313164625E0,1.687291260E0,7.954757996E0,6.028563538E0,1.012268269E1
8.323117625E0,1.457668762E0,8.101452942E0,5.986051941E0,1.017797405E1
8.333069625E0,1.215472412E0,8.183781738E0,5.716013489E0,1.005606618E1
8.343022625E0,1.174308014E0,8.117469635E0,5.486690369E0,9.867932093E0
8.352975625E0,1.352138214E0,8.009394379E0,5.670358429E0,9.906141569E0
8.362927625E0,1.349294128E0,8.102650452E0,5.968987427E0,1.015393273E1
8.372880625E0,1.109193420E0,7.881859589E0,5.644611969E0,9.757851449E0
8.382832625E0,7.012916565E-1,7.405999146E0,5.430108032E0,9.210141507E0
8.392785625E0,2.481838989E-1,7.059020691E0,5.266049194E0,8.810371302E0
8.402738625E0,-2.160008240E-1,7.371720428E0,5.488336945E0,9.192973450E0
8.412690625E0,-3.405418396E-1,7.726183319E0,6.151907043E0,9.882096827E0
8.422643625E0,-3.784130859E-1,8.197104034E0,7.183861084E0,1.090612539E1
8.432595625E0,-3.106040955E-1,8.550668793E0,7.357200623E0,1.128445004E1
8.442548625E0,-6.271957397E-2,8.327931976E0,6.726262665E0,1.070518539E1
8.452501625E0,3.948788452E-1,8.022417297E0,6.644382935E0,1.042415144E1
8.462453625E0,7.524851990E-1,8.064928894E0,6.910379791E0,1.064719028E1
8.472406625E0,8.490344238E-1,8.221054230E0,6.727609863E0,1.065679720E1
8.482358625E0,8.720864868E-1,8.536298676E0,6.441704407E0,1.072960790E1
8.492311625E0,6.123765564E-1,8.625962219E0,6.235283661E0,1.066119091E1
8.502264625E0,5.896238708E-1,8.585396576E0,5.869893494E0,1.041692566E1
8.512216625E0,8.153544617E-1,8.578660583E0,5.832471313E0,1.040557264E1
8.522169625E0,8.782237244E-1,8.288414154E0,5.785918121E0,1.014622760E1
8.532121625E0,7.183561707E-1,8.209378510E0,5.899082794E0,1.013455026E1
8.542074625E0,4.349954224E-1,7.901468811E0,5.987848206E0,9.923545562E0
8.552027625E0,-6.541397095E-2,7.283553772E0,4.750670929E0,8.696166328E0
8.561979625E0,-4.486170959E-1,7.318281555E0,4.010460205E0,8.357170172E0
8.571932625E0,-2.381547546E-1,7.838599548E0,4.683460693E0,9.134285119E0
8.581884625E0,-1.992356873E-1,7.917036438E0,4.909939728E0,9.318082901E0
8.591837625E0,-2.288740540E-1,7.901019745E0,4.968468018E0,9.336175383E0
8.601790625E0,-2.811154175E-1,7.866142273E0,4.994663544E0,9.322118002E0
8.611742625E0,-3.227288818E-1,7.728728027E0,5.087620239E0,9.258578214E0
8.621695625E0,-5.712121582E-1,7.526797943E0,4.787045288E0,8.938387617E0
8.631647625E0,-8.469387817E-1,7.629634094E0,4.361929321E0,8.829215657E0
8.641600625E0,-9.907896423E-1,7.798932037E0,4.428391113E0,9.023062279E0
8.651553625E0,-8.698411560E-1,7.953410797E0,4.354444885E0,9.109037117E0
8.661505625E0,-7.209008789E-1,8.033643951E0,4.859943695E0,9.416909575E0
8.671458625E0,-6.831793213E-1,8.224796448E0,5.725743256E0,1.004480694E1
8.681410625E0,-6.682104492E-1,8.510402527E0,6.160139923E0,1.052714492E1
8.691363625E0,-5.902226257E-1,8.511899414E0,6.555467834E0,1.075987699E1
8.701316625E0,-5.454656982E-1,8.423283691E0,6.705755310E0,1.078037083E1
8.711268625E0,-4.906796265E-1,8.257278900E0,6.331084442E0,1.041662381E1
8.721221625E0,-3.085084534E-1,8.014932861E0,6.021827545E0,1.002979228E1
8.731173625E0,-3.098556519E-2,7.983498230E0,6.071224823E0,1.002980433E1
8.741126625E0,1.291813660E-1,8.214318237E0,6.535259857E0,1.049768228E1
8.751079625E0,1.625619507E-1,8.563841400E0,7.008725281E0,1.106743132E1
8.761031625E0,3.153941345E-1,8.634344788E0,6.716981964E0,1.094391292E1
8.770984625E0,7.728428650E-1,8.315208435E0,6.221512299E0,1.041379819E1
8.780936625E0,1.269360352E0,7.868237915E0,5.053042145E0,9.436825658E0
8.790889625E0,1.575773163E0,7.348967743E0,4.107308807E0,8.565067051E0
8.800842625E0,1.846410370E0,6.936725006E0,4.078418884E0,8.255960614E0
8.810794625E0,2.079625397E0,6.982080688E0,4.766088867E0,8.705739235E0
8.820747625E0,2.247127075E0,7.256460114E0,5.558840332E0,9.413102534E0
8.830700625E0,2.467768250E0,7.404352570E0,6.097719727E0,9.904367873E0
8.840652625E0,2.560275879E0,7.434889069E0,6.201154633E0,1.001433507E1
8.850605625E0,2.149080963E0,7.598798218E0,5.817801819E0,9.808521874E0
8.860557625E0,1.669627991E0,7.851622467E0,5.474415894E0,9.716216464E0
8.870510625E0,1.268162842E0,7.748187561E0,5.459896088E0,9.563112086E0
8.880463625E0,7.484436035E-1,7.487878876E0,5.727240143E0,9.456731864E0
8.890415625E0,6.051914978E-1,7.335495758E0,5.998775482E0,9.495317902E0
8.900368625E0,1.005758514E0,7.173981628E0,6.168672180E0,9.514729584E0
8.910320625E0,1.576072540E0,7.170389099E0,6.388115845E0,9.731726904E0
8.920273625E0,2.061063995E0,7.443571014E0,6.603966980E0,1.016204281E1
8.930226625E0,2.136207733E0,7.524402924E0,6.355932770E0,1.007858642E1
8.940178625E0,1.923050995E0,7.714806976E0,6.127807159E0,1.003824648E1
8.950131625E0,1.894909515E0,7.970475311E0,6.158343658E0,1.024911486E1
8.960083625E0,1.886077881E0,7.741750946E0,6.470594330E0,1.026453060E1
8.970036625E0,1.791773987E0,7.499554596E0,6.151607666E0,9.863876015E0
8.979989625E0,2.031575317E0,7.196884003E0,5.644162903E0,9.369045442E0
8.989941625E0,2.465373230E0,6.995702362E0,5.671855316E0,9.337443945E0
8.999894625E0,2.659369812E0,6.775360565E0,5.813311157E0,9.315167481E0
9.009846625E0,2.709365845E0,6.803202667E0,5.790558472E0,9.335673368E0
9.019799625E0,2.541115723E0,6.876400452E0,5.503605194E0,9.166887281E0
9.029752917E0,2.314786377E0,7.118896179E0,5.416336670E0,9.239784722E0
9.039704917E0,2.163750458E0,6.987619171E0,5.513634338E0,9.160174744E0
9.049657917E0,2.070793762E0,6.830745392E0,5.896687775E0,9.258412182E0
9.059609917E0,2.048789520E0,6.705306244E0,6.103557587E0,9.295810107E0
9.069562917E0,2.152673492E0,6.606661377E0,6.311924286E0,9.387351379E0
9.079515917E0,2.278412018E0,6.737639008E0,6.350693665E0,9.535106226E0
9.089467917E0,2.317780151E0,6.875801697E0,6.000571747E0,9.415711077E0
9.099420917E0,2.520308990E0,7.092251587E0,5.745801544E0,9.469225172E0
9.109372917E0,2.743494873E0,7.178172913E0,5.613327026E0,9.516426366E0
9.119325917E0,2.936743011E0,7.291187897E0,5.938750305E0,9.851631116E0
9.129278917E0,2.870580597E0,7.360942841E0,6.139782257E0,1.000603011E1
9.139230917E0,2.708617401E0,7.228468323E0,6.069877625E0,9.819917357E0
9.149183917E0,2.708767090E0,7.234455872E0,6.022575989E0,9.795212731E0
9.159136917E0,2.722837830E0,7.310946808E0,6.072122955E0,9.886074360E0
9.169088917E0,2.546654205E0,7.436086578E0,6.052663422E0,9.920461972E0
9.179041917E0,2.605332184E0,7.461833038E0,6.164181519E0,1.002316526E1
9.188993917E0,2.868634644E0,7.480394440E0,6.195017395E0,1.012736917E1
9.198946917E0,3.072061615E0,7.467820587E0,6.116730194E0,1.013016758E1
9.208899917E0,3.171005859E0,7.444469147E0,5.885311432E0,1.000561291E1
9.218851917E0,2.885998535E0,7.177873535E0,5.639821930E0,9.573841832E0
9.228804917E0,2.695295105E0,7.007827148E0,5.626499634E0,9.382523923E0
9.238756917E0,2.644700317E0,7.094496918E0,5.766608276E0,9.517357685E0
9.248709917E0,2.578088837E0,7.235952759E0,5.909710693E0,9.691761184E0
9.258662917E0,2.645897827E0,7.340136108E0,6.131250000E0,9.923235358E0
9.268614917E0,2.669249268E0,7.383396149E0,6.175258484E0,9.988655950E0
9.278567917E0,2.671195221E0,7.422913971E0,6.242019653E0,1.005970900E1
9.288519917E0,2.542911987E0,7.468868408E0,6.296506348E0,1.009437412E1
9.298472917E0,2.560724945E0,7.469018097E0,6.378386078E0,1.015023904E1
9.308425917E0,2.822829895E0,7.558831329E0,6.492598572E0,1.035655039E1
9.318377917E0,2.949616241E0,7.439529419E0,6.109096069E0,1.006816213E1
9.328330917E0,2.847977600E0,7.323520660E0,5.833369446E0,9.786374730E0
9.338283917E0,3.041076050E0,7.505991211E0,5.765111389E0,9.941054116E0
9.348235917E0,3.176694031E0,7.681127014E0,6.110742645E0,1.031660181E1
9.358188917E0,3.529360657E0,8.032596130E0,5.917045441E0,1.058255234E1
9.368140917E0,3.707789612E0,8.398585052E0,5.403463440E0,1.065276264E1
9.378093917E0,3.580254822E0,8.550668793E0,5.988746338E0,1.103617887E1
9.388046917E0,3.805686035E0,8.618926849E0,5.924679565E0,1.112973379E1
9.397998917E0,4.055366821E0,8.784183197E0,5.659281464E0,1.120871720E1
9.407951917E0,4.078568573E0,8.572972412E0,6.436914368E0,1.147015450E1
9.417903917E0,3.738026733E0,8.042475586E0,7.084617462E0,1.135103793E1
9.427856917E0,3.402274933E0,7.437134399E0,7.573800201E0,1.114669872E1
9.437809917E0,3.464695129E0,7.137158203E0,7.763605499E0,1.110030224E1
9.447761917E0,3.375929718E0,6.991211700E0,6.782695313E0,1.030916574E1
9.457714917E0,2.811303864E0,7.094945984E0,6.081703033E0,9.758524464E0
9.467666917E0,2.390528870E0,7.261100464E0,6.365363159E0,9.947665876E0
9.477619917E0,2.293231201E0,7.324867859E0,6.372697906E0,9.976165451E0
9.487572917E0,2.245031433E0,7.312892761E0,6.050418091E0,9.753262313E0
9.497524917E0,2.176473999E0,7.207960968E0,5.868246918E0,9.546101941E0
9.507477917E0,2.426753540E0,7.181166687E0,6.057902527E0,9.703425723E0
9.517430917E0,2.669698334E0,6.996151428E0,6.655310211E0,1.001831213E1
9.527382917E0,2.526146851E0,7.027735748E0,6.609655151E0,9.972864628E0
9.537335917E0,2.392774200E0,7.388036499E0,6.294410706E0,9.996402244E0
9.547287917E0,2.397564240E0,7.528145142E0,6.514004059E0,1.023980139E1
9.557240917E0,2.247127075E0,7.134314117E0,6.157295837E0,9.688153077E0
9.567193917E0,2.432591400E0,6.871909790E0,5.446873169E0,9.099949033E0
9.577145917E0,2.900368652E0,8.114326172E0,5.148393860E0,1.003794734E1
9.587098917E0,3.285218353E0,8.310418396E0,5.042264557E0,1.026061136E1
9.597050917E0,3.565285950E0,7.516918488E0,4.555027771E0,9.484914625E0
9.607003917E0,3.778592377E0,7.577991486E0,4.898413696E0,9.782544252E0
9.616956917E0,3.780089264E0,7.626490631E0,5.567821655E0,1.017118834E1
9.626908917E0,3.685336304E0,7.692054291E0,6.189329224E0,1.053836795E1
9.636861917E0,3.432062988E0,7.678432617E0,7.051536255E0,1.097549759E1
9.646813917E0,3.113076324E0,7.573650513E0,7.490124207E0,1.109744957E1
9.656766917E0,2.948418732E0,7.434140625E0,7.540120239E0,1.099149822E1
9.666719917E0,3.129991150E0,7.339986420E0,7.769293671E0,1.113706287E1
9.676671917E0,3.642076263E0,7.571704559E0,7.200925598E0,1.106565673E1
9.686624917E0,3.992048492E0,7.860603790E0,6.445296936E0,1.092096130E1
9.696577917E0,3.998784485E0,8.247848511E0,6.425538025E0,1.119396361E1
9.706529917E0,3.642675018E0,8.145910492E0,6.501879272E0,1.104080491E1
9.716482917E0,3.006647644E0,7.890391846E0,6.345753937E0,1.056251895E1
9.726434917E0,2.005529480E0,8.197702789E0,6.392606506E0,1.058725165E1
9.736387917E0,1.379680939E0,8.621022491E0,6.539600830E0,1.090834210E1
9.746340917E0,1.184337158E0,8.691974945E0,6.778803406E0,1.108626441E1
9.756292917E0,1.257684631E0,8.529562683E0,6.512207794E0,1.080481654E1
9.766245917E0,1.600920868E0,8.461903381E0,6.334676971E0,1.069087877E1
9.776197917E0,2.005679169E0,8.514144745E0,6.320306854E0,1.079164901E1
9.786150917E0,2.615061951E0,8.677155762E0,5.736969910E0,1.072587548E1
9.796103917E0,2.795137482E0,8.823102264E0,5.365741882E0,1.069818270E1
9.806055917E0,2.609972534E0,8.760382690E0,4.543801117E0,1.020795720E1
9.816008917E0,2.420915680E0,8.799900513E0,3.732039185E0,9.860385299E0
9.825961917E0,2.026785278E0,8.463100891E0,3.466641083E0,9.367472213E0
9.835913917E0,1.542691956E0,8.145611115E0,3.563938751E0,9.023997912E0
9.845866917E0,9.571096802E-1,7.669900360E0,4.327800293E0,8.858514878E0
9.855818917E0,5.706134033E-1,7.273075562E0,4.599635010E0,8.624376499E0
9.865771917E0,7.655081177E-1,7.533833313E0,3.883374481E0,8.510302252E0
9.875724917E0,9.972262573E-1,7.507338409E0,3.333418121E0,8.274434517E0
9.885676917E0,1.111139374E0,7.673941956E0,3.481310577E0,8.499619943E0
9.895629917E0,8.370593262E-1,7.758965149E0,3.898343353E0,8.723490666E0
9.905581917E0,1.645079041E-1,7.924969940E0,4.133204956E0,8.939552260E0
9.915534917E0,-6.155200195E-1,7.577542419E0,4.250261536E0,8.709921764E0
9.925487917E0,-7.264393616E-1,7.835755463E0,5.367687836E0,9.525694228E0
9.935439917E0,-1.114133148E0,6.620881805E0,5.970484314E0,8.984656448E0
9.945392917E0,-1.702409821E0,6.498436432E0,6.182443542E0,9.129648592E0
9.955345917E0,-1.670975189E0,6.661148071E0,5.764362946E0,8.966099034E0
9.965297917E0,-1.515149231E0,6.624474335E0,4.677772522E0,8.249902616E0
9.975250917E0,-1.319057007E0,8.001909943E0,4.067641296E0,9.072826452E0
9.985202917E0,-7.458988953E-1,7.601642303E0,4.213587799E0,8.723282238E0
9.995155917E0,-5.019062805E-1,7.546407166E0,4.663552094E0,8.885318742E0
1.000510892E1,-5.834866333E-1,7.442523193E0,5.212760010E0,9.105189457E0
1.001506092E1,-4.529580688E-1,7.675139465E0,5.854924622E0,9.664009476E0
1.002501375E1,-2.962339783E-1,8.304430847E0,6.817273407E0,1.074832745E1
1.003496575E1,-5.343887329E-2,8.850644989E0,6.974895630E0,1.126880391E1
1.004491875E1,1.589694214E-1,9.402397614E0,6.421795807E0,1.138726541E1
1.005487175E1,-3.206332397E-1,1.002195923E1,5.820047150E0,1.159376648E1
1.006482375E1,-7.701484680E-1,1.008827133E1,5.501060486E0,1.151642365E1
1.007477675E1,-1.009201355E0,9.925260315E0,5.563630371E0,1.142292706E1
1.008472975E1,-1.368005219E0,9.521400146E0,5.172643433E0,1.092175531E1
1.009468175E1,-1.457369385E0,9.161099396E0,4.682712250E0,1.039122041E1
1.010463475E1,-1.482367401E0,8.775351563E0,4.909191284E0,1.016387560E1
1.011458675E1,-1.440903625E0,8.436605988E0,4.984335022E0,9.904348513E0
1.012453975E1,-1.535656586E0,8.082292786E0,4.823569336E0,9.536693293E0
1.013449275E1,-1.902094574E0,7.585625610E0,4.339625702E0,8.943826413E0
1.014444475E1,-2.104922791E0,7.073690186E0,2.938688965E0,7.943782829E0
1.015439775E1,-1.849853210E0,7.144343262E0,2.102827148E0,7.673687481E0
1.016434975E1,-1.223256226E0,6.906787262E0,2.650089111E0,7.498202343E0
1.017430275E1,-1.124910736E0,6.058950348E0,2.540816345E0,6.665737107E0
1.018425575E1,-1.577419739E0,5.738616486E0,2.390379181E0,6.413570365E0
1.019420775E1,-2.036664734E0,5.889353027E0,3.284020844E0,7.043953096E0
1.020416075E1,-1.916913757E0,6.372099152E0,3.001857605E0,7.299955824E0
1.021411375E1,-1.549128571E0,6.827152863E0,3.009192352E0,7.620042923E0
1.022406575E1,-1.164428558E0,7.103178864E0,3.427123260E0,7.972215356E0
1.023401875E1,-3.782633972E-1,7.288792877E0,3.642974396E0,8.157257336E0
1.024397075E1,8.652008057E-2,7.176676025E0,4.196972351E0,8.314249299E0
1.025392375E1,4.818479919E-1,7.176676025E0,4.744683380E0,8.616778786E0
1.026387675E1,7.304809570E-1,6.984475708E0,5.252577209E0,8.769610635E0
1.027382875E1,6.551875305E-1,6.934180298E0,5.561085663E0,8.912788613E0
1.028378175E1,4.793032837E-1,7.266189880E0,5.229076080E0,8.964958654E0
1.029373375E1,1.613644409E-1,7.768994293E0,4.862189026E0,9.166471128E0
1.030368675E1,2.050735474E-2,8.314310303E0,4.860991516E0,9.631065096E0
1.031363975E1,3.453318787E-1,8.476123810E0,5.237458649E0,9.969699195E0
1.032359175E1,1.048868866E0,8.224796448E0,5.770500183E0,1.010178573E1
1.033354475E1,1.889371033E0,8.019124146E0,5.932463379E0,1.015234932E1
1.034349775E1,2.449955292E0,8.045319672E0,6.125711517E0,1.040450821E1
1.035344975E1,2.222578125E0,8.508456573E0,6.303392029E0,1.081972448E1
1.036340275E1,1.432521057E0,9.941127319E0,6.320755920E0,1.186718519E1
1.037335475E1,1.548529816E0,9.803862762E0,7.254663849E0,1.229405617E1
1.038330775E1,2.097288666E0,9.256750488E0,7.847580872E0,1.231546081E1
1.039326075E1,2.198029175E0,8.260122986E0,8.486751709E0,1.204516162E1
1.040321275E1,1.957030334E0,7.605085144E0,8.701105957E0,1.172077355E1
1.041316575E1,1.598825226E0,8.040080566E0,8.448880463E0,1.177211615E1
1.042311875E1,9.330097961E-1,7.646698608E0,8.285121002E0,1.131307814E1
1.043307075E1,3.483256531E-1,7.357649689E0,8.554261322E0,1.128856618E1
1.044302375E1,4.418811035E-1,7.529043274E0,8.754694519E0,1.155536359E1
1.045297575E1,8.795709229E-1,8.150550842E0,8.763526154E0,1.200018811E1
1.046292875E1,1.268911285E0,8.015232239E0,8.181237030E0,1.152331216E1
1.047288175E1,1.690285034E0,8.130642242E0,7.440277863E0,1.114998392E1
1.048283375E1,1.951192474E0,8.276588745E0,6.739285583E0,1.085020938E1
1.049278675E1,2.279310150E0,8.433612213E0,5.916446686E0,1.055108578E1
1.050273875E1,2.788401489E0,8.990005188E0,3.548520813E0,1.005919361E1
1.051269175E1,3.332220612E0,8.678802338E0,1.729503479E0,9.456029109E0
1.052264475E1,3.105142822E0,6.781497803E0,4.240980835E0,8.580008324E0
1.053259675E1,2.544558563E0,6.216572571E0,7.648794250E0,1.017961720E1
1.054254975E1,2.289938049E0,6.082152100E0,1.027388535E1,1.215685447E1
1.055250275E1,2.095492401E0,5.985153809E0,1.196626602E1,1.354269829E1
1.056245475E1,2.223476257E0,6.913373566E0,1.105765549E1,1.322914682E1
1.057240775E1,2.389481049E0,7.363337860E0,9.473649445E0,1.223431232E1
1.058235975E1,2.132315826E0,6.763235779E0,1.015248779E1,1.238390639E1
1.059231275E1,1.745071106E0,6.457721100E0,1.045470932E1,1.241162286E1
1.060226575E1,1.396446075E0,6.525829468E0,9.805209961E0,1.186080327E1
1.061221775E1,1.319356384E0,6.688391418E0,9.066196747E0,1.134333304E1
1.062217075E1,1.744172974E0,6.706503754E0,7.960745544E0,1.055427883E1
1.063212375E1,2.160157928E0,6.903194733E0,7.136709137E0,1.016134819E1
1.064207575E1,2.432741089E0,7.244634705E0,6.727759552E0,1.018163591E1
1.065202875E1,2.674338684E0,7.301067352E0,6.190526733E0,9.938827552E0
1.066198075E1,2.505040741E0,7.072342987E0,5.973178711E0,9.590210027E0
1.067193375E1,1.997296600E0,6.922504578E0,5.810916138E0,9.256187644E0
1.068188675E1,1.643282776E0,6.834936676E0,5.561235352E0,8.963485722E0
1.069183875E1,1.367556152E0,6.872059479E0,5.501509552E0,8.908536280E0
1.070179175E1,1.257385254E0,7.119644623E0,5.160368958E0,8.882553969E0
1.071174375E1,1.628912659E0,7.184310150E0,4.925806732E0,8.861785415E0
1.072169675E1,2.424807587E0,7.049889679E0,5.046306152E0,9.002546423E0
1.073164975E1,3.088677063E0,7.024442596E0,5.294340363E0,9.322701307E0
1.074160175E1,3.276386719E0,7.394622803E0,6.374943237E0,1.029830363E1
1.075155475E1,3.150199127E0,7.949668579E0,6.336622925E0,1.064301532E1
1.076150775E1,2.691253510E0,7.759264526E0,6.453679504E0,1.044504718E1
1.077145975E1,1.874851227E0,7.389982452E0,7.180118866E0,1.047287041E1
1.078141275E1,1.462309113E0,6.453380127E0,6.100264435E0,8.999871620E0
1.079136475E1,2.178869019E0,6.143973541E0,7.502099304E0,9.938680750E0
1.080131775E1,1.850302277E0,6.495442657E0,9.673633575E0,1.179803290E1
1.081127075E1,1.285676422E0,6.175408173E0,8.199199677E0,1.034482988E1
1.082122275E1,6.454577637E-1,6.418203278E0,6.584357758E0,9.217576477E0
1.083117575E1,1.040336609E-1,6.596931610E0,6.738836517E0,9.430919747E0
1.084112875E1,3.173400879E-2,7.569010162E0,8.807085571E0,1.161273775E1
1.085108075E1,5.559439087E-1,8.851543121E0,9.871671753E0,1.327059880E1
1.086103375E1,1.427731018E0,9.079219666E0,8.049061890E0,1.221712089E1
1.087098575E1,1.666185150E0,9.351503448E0,6.974296875E0,1.178421005E1
1.088093875E1,8.666976929E-1,1.008872040E1,6.674919434E0,1.212798391E1
1.089089175E1,4.340972900E-1,9.656269684E0,6.823560333E0,1.183186208E1
1.090084375E1,1.144220581E0,8.601562958E0,6.243666229E0,1.069015875E1
1.091079675E1,1.683998108E0,8.356971588E0,5.995182953E0,1.042195003E1
1.092074875E1,2.315085754E0,7.887398071E0,4.653373260E0,9.445874924E0
1.093070175E1,2.797083435E0,7.149582367E0,3.276835785E0,8.347326310E0
1.094065475E1,2.726430359E0,7.346722412E0,3.386258240E0,8.536656112E0
1.095060675E1,2.554138641E0,7.990533600E0,4.185296631E0,9.374911162E0
1.096055975E1,2.429747314E0,8.159831543E0,3.759132843E0,9.306857824E0
1.097051275E1,2.056423645E0,7.549251251E0,2.872676239E0,8.335006985E0
1.098046475E1,1.467997284E0,6.650669861E0,2.485281830E0,7.250038027E0
1.099041775E1,1.195713501E0,6.481222229E0,2.637664948E0,7.098820235E0
1.100036975E1,1.149160309E0,6.539451141E0,3.243754578E0,7.389650493E0
1.101032275E1,9.545649719E-1,6.580465851E0,4.411925354E0,7.979900402E0
1.102027575E1,7.946974182E-1,6.308930511E0,5.910758514E0,8.681659657E0
1.103022713E1,5.312452698E-1,5.903872833E0,6.830446014E0,9.043944312E0
1.104018013E1,1.751358032E-1,6.465055847E0,5.999224548E0,8.821468973E0
1.105013313E1,-1.347198486E-2,6.940766602E0,5.278473358E0,8.719902723E0
1.106008513E1,-2.653981018E-1,7.466772766E0,6.010151825E0,9.588798499E0
1.107003813E1,-5.421725464E-1,8.024662628E0,6.988666992E0,1.065507521E1
1.107999013E1,-2.939886475E-1,8.791368256E0,7.128775635E0,1.132228012E1
1.108994313E1,3.748205566E-1,9.316775665E0,6.552623749E0,1.139647653E1
1.109989613E1,1.005608826E0,9.421408081E0,5.884862366E0,1.115373410E1
1.110984813E1,1.072669373E0,9.420959015E0,5.340294800E0,1.088227168E1
1.111980113E1,8.738827515E-1,9.398206329E0,4.809199219E0,1.059331631E1
1.112975313E1,3.845503235E-1,9.055269470E0,4.796176300E0,1.025422309E1
1.113970613E1,-3.273692322E-1,8.501421204E0,5.548811188E0,1.015729485E1
1.114965913E1,-8.312214661E-1,7.675289154E0,6.118526459E0,9.850754222E0
1.115961113E1,-1.009650421E0,6.603517914E0,6.099815369E0,9.046192035E0
1.116956413E1,-1.009351044E0,6.021977234E0,5.128784637E0,7.974172759E0
1.117951713E1,-8.885522461E-1,6.367608490E0,4.677922211E0,7.951032586E0
1.118946913E1,-9.894424438E-1,6.686146088E0,4.335883484E0,8.030157622E0
1.119942213E1,-1.298100586E0,6.739435272E0,3.887865143E0,7.888000272E0
1.120937412E1,-1.302291870E0,6.707401886E0,3.793561249E0,7.815133468E0
1.121932712E1,-9.265731812E-1,6.230792999E0,3.412902832E0,7.164441709E0
1.122928013E1,-3.342549133E-1,6.230942688E0,3.531905365E0,7.170127519E0
1.123923212E1,4.878355408E-1,6.374793549E0,3.856580200E0,7.466537828E0
1.124918512E1,1.310674438E0,6.494544525E0,4.620292053E0,8.077380437E0
1.125913812E1,1.941612396E0,6.958130493E0,5.086722107E0,8.835167256E0
1.126909012E1,1.969753876E0,7.641459503E0,5.379213867E0,9.550276200E0
1.127904312E1,1.553020477E0,8.226592712E0,5.090913391E0,9.798270226E0
1.128899512E1,8.737330627E-1,9.503886566E0,4.839436340E0,1.070081368E1
1.129894812E1,6.762936401E-1,9.580078125E0,6.030958557E0,1.134053487E1
1.130890112E1,1.307530975E0,8.518036652E0,6.693780212E0,1.091207034E1
1.131885312E1,1.870210876E0,8.108638000E0,6.414311371E0,1.050671639E1
1.132880612E1,2.219584351E0,7.764054565E0,5.842500458E0,9.967041165E0
1.133875812E1,2.595003662E0,7.157366180E0,5.421575775E0,9.346412067E0
1.134871112E1,3.000809784E0,7.072642365E0,5.541775818E0,9.473035870E0
1.135866412E1,3.046165466E0,7.613467712E0,6.247109070E0,1.030875290E1
1.136861612E1,2.954555969E0,7.658823395E0,7.272626495E0,1.096713604E1
1.137856912E1,2.552042999E0,7.114405518E0,7.923023987E0,1.094997710E1
1.138852212E1,2.294428711E0,7.040758667E0,8.360863495E0,1.116873870E1
1.139847412E1,1.909728699E0,8.620872803E0,9.920320587E0,1.328078583E1
1.140842712E1,8.708889771E-1,8.612190857E0,9.086404724E0,1.254954301E1
1.141837912E1,-1.510359192E-1,6.459367676E0,7.525600433E0,9.918714861E0
1.142833212E1,1.938468933E-1,7.060517578E0,9.143585815E0,1.155394507E1
1.143828512E1,9.478289795E-1,7.245532837E0,8.172255707E0,1.096275007E1
1.144823713E1,1.431622925E0,7.653883667E0,7.253017273E0,1.064132224E1
1.145819013E1,2.106269989E0,8.123457184E0,7.115752716E0,1.100276632E1
1.146814313E1,2.487826538E0,8.249644775E0,7.240593109E0,1.125487043E1
1.147809513E1,2.487826538E0,8.182883606E0,7.045698395E0,1.108109791E1
1.148804813E1,2.292931824E0,8.272397461E0,5.874234467E0,1.040176556E1
1.149800013E1,2.555336151E0,8.402027893E0,3.645519104E0,9.508607947E0
1.150795313E1,3.275039520E0,8.501421204E0,2.909200287E0,9.563654775E0
1.151790613E1,2.683469696E0,6.944359131E0,7.475903778E0,1.055055784E1
1.152785813E1,9.207353210E-1,5.721252594E0,1.307695633E1,1.430340070E1
1.153781113E1,-1.076261902E-1,6.321354675E0,1.366418518E1,1.505593122E1
1.154776313E1,6.915618896E-2,6.698570251E0,1.150642227E1,1.331440496E1
1.155771613E1,1.496887207E-3,6.064488831E0,1.065813629E1,1.226270346E1
1.156766913E1,2.448907471E-1,6.202052765E0,9.901759186E0,1.168632812E1
1.157762113E1,8.919950867E-1,6.443051605E0,9.416618042E0,1.144470465E1
1.158757413E1,1.366358643E0,6.483766937E0,8.877888336E0,1.107804455E1
1.159752713E1,8.503816223E-1,6.721472626E0,8.498726807E0,1.086874880E1
1.160747913E1,1.047821045E-2,6.861281891E0,8.644523621E0,1.103653422E1
1.161743213E1,-9.131011963E-3,7.454647980E0,8.283474426E0,1.114395838E1
1.162738413E1,8.939410400E-1,7.758516083E0,7.583679657E0,1.088604150E1
1.163733713E1,1.759291534E0,7.768395538E0,6.878047028E0,1.052381142E1
1.164729013E1,2.116598511E0,7.334597626E0,6.888525238E0,1.028241662E1
1.165724213E1,1.987267456E0,7.077582092E0,7.268884277E0,1.033818547E1
1.166719513E1,1.625769196E0,7.173233185E0,7.477849731E0,1.048888156E1
1.167714813E1,1.372495880E0,7.495363312E0,7.559579773E0,1.073366025E1
1.168710013E1,1.055904236E0,7.902516632E0,7.117099915E0,1.068727346E1
1.169705313E1,1.045276337E0,8.724008331E0,6.578220520E0,1.097606073E1
1.170700513E1,1.584604797E0,9.222471771E0,6.067781982E0,1.115270981E1
1.171695813E1,2.194586334E0,8.900191956E0,5.632636871E0,1.075900665E1
1.172691113E1,2.510728912E0,7.943231964E0,6.323899384E0,1.045898643E1
1.173686312E1,2.495610352E0,7.462880859E0,7.460336151E0,1.084339786E1
1.174681612E1,2.846480713E0,7.757767639E0,6.921007690E0,1.077894979E1
1.175676913E1,3.123704224E0,8.167315979E0,6.759792938E0,1.105248293E1
1.176672112E1,2.417921906E0,8.342601471E0,7.983647919E0,1.179762602E1
1.177667412E1,1.007554779E0,8.360863495E0,7.150330811E0,1.104746286E1
1.178662612E1,-3.165916443E-1,8.951535187E0,5.709427185E0,1.062204176E1
1.179657912E1,-1.398691406E0,9.479038239E0,5.997727661E0,1.130403648E1
1.180653212E1,-2.143542480E0,9.690548401E0,6.116580505E0,1.165821855E1
1.181648412E1,-1.992506561E0,9.412127380E0,6.056555328E0,1.136838100E1
1.182643712E1,-1.256936188E0,8.762927399E0,6.289770355E0,1.085955783E1
1.183638912E1,-4.038601685E-1,8.088280334E0,6.522536316E0,1.039840670E1
1.184634212E1,8.523275757E-1,7.901019745E0,6.528523865E0,1.028465844E1
1.185629512E1,2.122286682E0,7.622449036E0,5.661377106E0,9.729183974E0
1.186624712E1,2.475701752E0,7.460934906E0,4.395010529E0,9.006151586E0
1.187620012E1,2.215692444E0,7.826325073E0,3.457360382E0,8.838212374E0
1.188615312E1,1.605112152E0,8.234526215E0,2.473905487E0,8.746657382E0
1.189610512E1,9.020242310E-1,8.228688354E0,1.794019318E0,8.470151419E0
1.190605812E1,4.128414917E-1,7.848628693E0,1.936672668E0,8.094572964E0
1.191601012E1,-1.086740112E-1,7.639962616E0,2.281106415E0,7.973975501E0
1.192596312E1,-6.462062073E-1,7.776628418E0,2.168989563E0,8.099262172E0
1.193591612E1,-1.174607391E0,7.775879974E0,1.978884888E0,8.109253807E0
1.194586812E1,-1.623074799E0,7.712711334E0,2.349214783E0,8.224299242E0
1.195582112E1,-1.403032379E0,7.562274170E0,2.714754639E0,8.156370714E0
1.196577313E1,-2.881507874E-1,7.628436584E0,3.344046021E0,8.334189786E0
1.197572613E1,7.656578064E-1,8.131091309E0,3.617078247E0,8.932196415E0
1.198567913E1,1.254541168E0,8.718918915E0,4.786895599E0,1.002535735E1
1.199563113E1,9.054670715E-1,9.261540527E0,6.060297546E0,1.110509837E1
1.200558413E1,2.140548706E-2,9.854307861E0,6.667285309E0,1.189792146E1
1.201553713E1,-1.469793549E0,9.816885681E0,6.521638184E0,1.187700729E1
1.202548937E1,-3.053200836E0,1.012180161E1,6.857689362E0,1.260161920E1
1.203544237E1,-3.761078796E0,1.070409073E1,7.418872375E0,1.355591898E1
1.204539437E1,-3.584296417E0,1.070409073E1,8.086484070E0,1.388581880E1
1.205534737E1,-2.798879700E0,1.026370651E1,8.506660309E0,1.362133138E1
1.206530037E1,-1.419049072E0,1.009231293E1,8.483907623E0,1.326066247E1
1.207525237E1,6.331832886E-2,1.007689499E1,8.243208160E0,1.301915138E1
1.208520537E1,1.024319916E0,1.002495300E1,7.698191528E0,1.268113034E1
1.209515837E1,1.497336273E0,9.775272217E0,7.014263763E0,1.212426736E1
1.210511037E1,1.976340179E0,9.667646027E0,6.740632782E0,1.195012261E1
1.211506337E1,2.646047516E0,1.011087433E1,6.864874420E0,1.250431317E1
1.212501537E1,3.428320770E0,1.077025314E1,6.441105652E0,1.300921128E1
1.213496837E1,4.232897644E0,1.090227859E1,6.849157104E0,1.355315661E1
1.214492137E1,4.808450775E0,1.057910065E1,7.065606995E0,1.360005042E1
1.215487337E1,5.316194916E0,1.001297791E1,5.895939331E0,1.277825323E1
1.216482637E1,5.404062195E0,9.519603882E0,5.743705902E0,1.236191343E1
1.217477837E1,4.951702881E0,9.451794891E0,5.996530151E0,1.223985956E1
1.218473137E1,3.592529297E0,9.369915161E0,6.881938934E0,1.216810011E1
1.219468437E1,1.364861755E0,9.126072235E0,8.445437622E0,1.250893515E1
1.220463637E1,-1.196611633E0,8.890911255E0,1.230546066E1,1.522841241E1
1.221458937E1,-4.324956207E0,8.818312225E0,1.648611694E1,1.919009975E1
1.222454237E1,-9.874366150E0,1.106618774E1,1.199051559E1,1.907186625E1
1.223449438E1,-1.003573059E1,1.653581360E1,7.866441650E0,2.088132956E1
1.224444738E1,-7.375762024E0,1.939217377E1,6.823710022E0,2.184081700E1
1.225439938E1,-4.971162415E0,1.912961975E1,6.203250275E0,2.071557679E1
1.226435238E1,-1.708547058E0,1.763827103E1,8.971294098E0,1.986232251E1
1.227430538E1,7.375163269E-1,1.404304733E1,9.073681183E0,1.673567444E1
1.228425738E1,1.878294067E0,1.083776276E1,8.195008392E0,1.371653210E1
1.229421038E1,1.963167572E0,9.039701843E0,7.223229218E0,1.173649337E1
1.230416338E1,2.087109833E0,7.638914795E0,6.538403320E0,1.026936048E1
1.231411538E1,2.298320618E0,6.733298035E0,5.674250336E0,9.100367957E0
1.232406838E1,2.159858551E0,7.062313843E0,5.588478699E0,9.261336833E0
1.233402038E1,1.582209778E0,7.716154175E0,4.560566254E0,9.101713442E0
1.234397338E1,1.394200745E0,7.847580872E0,3.901786194E0,8.874246827E0
1.235392638E1,1.660347290E0,7.820936279E0,3.080444183E0,8.568134790E0
1.236387838E1,2.171983337E0,7.859855347E0,2.928510132E0,8.664352791E0
1.237383138E1,2.500849457E0,8.220455475E0,3.221600647E0,9.176537852E0
1.238378338E1,2.706372070E0,8.805139618E0,2.659070435E0,9.587783323E0
1.239373638E1,2.975213013E0,8.997639313E0,2.266586609E0,9.744065914E0
1.240368938E1,2.972967682E0,9.125024414E0,1.728156281E0,9.751468173E0
1.241364138E1,2.783461761E0,9.706565094E0,8.424481201E-1,1.013285666E1
1.242359438E1,2.504741364E0,1.033555710E1,3.140469360E-1,1.063936536E1
1.243354738E1,2.017654266E0,1.002974304E1,7.259902954E-1,1.025639976E1
1.244349938E1,1.407672729E0,8.491841125E0,6.189628601E-1,8.629949202E0
1.245345238E1,8.634045410E-1,6.157445526E0,3.701802063E-1,6.228694582E0
1.246340438E1,5.044509888E-1,4.962031403E0,-4.569996643E-1,5.008500288E0
1.247335738E1,5.075944519E-1,5.559588776E0,-1.157093811E0,5.701363483E0
1.248331038E1,7.003935242E-1,6.763235779E0,-1.121318207E0,6.891245447E0
1.249326238E1,1.022373962E0,7.668403473E0,6.674620056E-1,7.764996193E0
1.250321538E1,2.026186523E0,8.578959961E0,2.173031158E0,9.078879350E0
1.251316738E1,3.410208435E0,9.166188812E0,1.999392242E0,9.982289730E0
1.252312038E1,3.692970428E0,9.042246552E0,3.604504395E0,1.041118174E1
1.253307338E1,3.021616516E0,8.333320770E0,4.831951904E0,1.009565058E1
1.254302537E1,1.958826599E0,7.610623627E0,3.798800354E0,8.728658417E0
1.255297837E1,1.001267853E0,7.304809570E0,4.455035706E0,8.614529779E0
1.256293137E1,5.460644531E-1,7.390132141E0,4.722080383E0,8.786938181E0
1.257288337E1,4.813989258E-1,7.717800751E0,4.382286987E0,8.888230003E0
1.258283637E1,5.908213806E-1,7.808212738E0,4.319717102E0,8.942997926E0
1.259278837E1,8.059240723E-1,8.020321655E0,2.950514374E0,8.583740917E0
1.260274137E1,1.167871399E0,8.121361542E0,2.457888794E0,8.565141810E0
1.261269437E1,2.110910339E0,7.224726105E0,2.056124268E0,7.802580134E0
1.262264637E1,3.021317139E0,5.536686401E0,1.712139587E0,6.535646527E0
1.263259937E1,3.715872803E0,4.059109039E0,3.610791321E0,6.581936709E0
1.264255237E1,4.381987610E0,3.871100006E0,5.565127258E0,8.072042621E0
1.265250437E1,4.919220428E0,5.037923584E0,5.896388397E0,9.184051382E0
1.266245737E1,4.997507629E0,6.467750244E0,5.650749207E0,9.936691719E0
1.267240937E1,4.750820618E0,7.048542480E0,6.126759338E0,1.047804503E1
1.268236237E1,4.483177185E0,7.438930664E0,6.600973206E0,1.090914361E1
1.269231537E1,4.212090912E0,7.930807800E0,7.630532227E0,1.178407588E1
1.270226737E1,4.246369629E0,8.323141937E0,7.991581421E0,1.229519094E1
1.271222037E1,4.109703827E0,7.851472778E0,7.066056061E0,1.133421539E1
1.272217237E1,3.311114502E0,7.216792603E0,7.063810730E0,1.062746427E1
1.273212537E1,2.657274170E0,7.091503143E0,8.851243744E0,1.164882134E1
1.274207837E1,1.977088623E0,6.709647217E0,1.000504440E1,1.220774994E1
1.275203038E1,9.756710815E-1,6.149212646E0,9.733059998E0,1.155409915E1
1.276198338E1,6.620732117E-1,5.673950958E0,1.015338593E1,1.165003460E1
1.277193638E1,-5.981561279E-1,4.518354034E0,1.039393570E1,1.134932656E1
1.278188838E1,-1.946552124E0,3.443888397E0,1.061487625E1,1.132806384E1
1.279184138E1,-2.408940582E0,3.379522247E0,1.091545120E1,1.167780974E1
1.280179338E1,-1.589993591E0,1.950444031E0,1.089674011E1,1.118352613E1
1.281174638E1,-1.643282776E0,2.117346954E0,8.818461914E0,9.216767705E0
1.282169938E1,-1.554517365E0,1.963466949E0,8.007298737E0,8.389789017E0
1.283165138E1,-1.650168457E0,1.751956787E0,7.624544678E0,7.995379295E0
1.284160438E1,-1.081501007E0,2.201172638E0,7.101831665E0,7.513375966E0
1.285155738E1,-1.366658020E-1,2.782114563E0,6.590494995E0,7.154960745E0
1.286150938E1,2.878514099E-1,3.552562408E0,5.521418152E0,6.571880744E0
1.287146238E1,1.055754547E0,4.638703766E0,4.812342682E0,6.766892372E0
1.288141438E1,2.184407501E0,5.660928040E0,4.668192444E0,7.655701346E0
1.289136738E1,3.356320496E0,5.919290771E0,4.620441742E0,8.225045434E0
1.290132038E1,3.991300049E0,5.058430939E0,3.946243744E0,7.555861257E0
1.291127238E1,4.318070526E0,4.290827179E0,6.162085876E0,8.661883935E0
1.292122538E1,3.359763336E0,3.334166565E0,1.110675339E1,1.207330308E1
1.293117838E1,2.086960144E0,1.924697571E0,1.215292786E1,1.248012495E1
1.294113038E1,1.858834534E0,1.122964783E0,9.818532257E0,1.005583867E1
1.295108338E1,3.093317413E0,1.126557312E0,6.469696198E0,7.259112403E0
1.296103538E1,4.724176025E0,1.271156616E0,4.516408081E0,6.658199473E0
1.297098838E1,4.622238007E0,1.040486298E0,6.337221680E0,7.912526432E0
1.298094138E1,3.104394379E0,1.674717407E0,9.866133270E0,1.047771581E1
1.299089338E1,1.570983124E0,2.764301605E0,1.136810989E1,1.180437520E1
1.300084638E1,3.365002441E-1,4.085753632E0,1.106079895E1,1.179609633E1
1.301079938E1,1.348695374E-1,5.541177063E0,9.812095642E0,1.126943006E1
1.302075138E1,1.120120697E0,6.027366028E0,7.432194672E0,9.634382660E0
1.303070475E1,3.025807800E0,6.058201904E0,4.305346985E0,8.024545832E0
1.304065675E1,5.892646179E0,8.863218842E0,2.506837006E0,1.093453973E1
1.305060975E1,1.087772964E1,1.446202606E1,3.045866089E0,1.835081743E1
1.306056275E1,8.145012360E0,1.383737503E1,4.842430115E-1,1.606389322E1
1.307051475E1,4.388873291E0,7.111711121E0,3.049757996E0,8.896047867E0
1.308046775E1,2.516566772E0,5.750591583E0,8.768016815E0,1.078334506E1
1.309041975E1,1.510359192E-1,4.999303894E0,1.082114731E1,1.192111909E1
1.310037275E1,-2.447560272E0,6.463558960E-1,1.085677322E1,1.114799767E1
1.311032575E1,-3.644171906E0,-3.883673859E0,1.000085312E1,1.133048872E1
1.312027775E1,-1.044827271E0,-5.080584869E0,8.572373657E0,1.001946090E1
1.313023075E1,2.633773041E0,-4.353097687E0,7.470964050E0,9.038889519E0
1.314018375E1,5.424120483E0,-2.163750458E0,5.849086761E0,8.265271623E0
1.315013575E1,6.577771454E0,6.243516541E-1,6.217770081E0,9.072902351E0
1.316008875E1,6.295608215E0,2.174977112E0,6.340215454E0,9.195843640E0
1.317004075E1,6.252198486E0,3.590733032E0,3.419189758E0,7.979612035E0
1.317999375E1,5.546266479E0,6.026617584E0,1.847757568E0,8.396153846E0
1.318994675E1,3.436553650E0,9.605974274E0,2.692600708E0,1.055152791E1
1.319989875E1,1.190175018E0,1.405442368E1,3.497776337E0,1.453195722E1
1.320985175E1,1.140628052E-1,1.490824814E1,3.170706482E0,1.524212100E1
1.321980375E1,-1.677112427E0,1.076935501E1,3.798351288E0,1.154206160E1
1.322975675E1,-2.417472839E0,5.933810577E0,6.299649811E0,8.985536747E0
1.323970975E1,5.269042969E-2,4.095333710E0,9.304650879E0,1.016617246E1
1.324966175E1,5.096900940E0,4.565206604E0,1.101155136E1,1.296432697E1
1.325961475E1,8.098159790E0,6.145769806E0,1.119282440E1,1.512051575E1
1.326956775E1,6.734794922E0,7.600444794E0,9.474547577E0,1.388853036E1
1.327951975E1,4.518503723E0,8.708590393E0,7.001240845E0,1.205295797E1
1.328947275E1,1.911225586E0,9.809700623E0,4.789739685E0,1.108262676E1
1.329942475E1,-6.259982300E-1,1.101125198E1,3.327430573E0,1.152004072E1
1.330937775E1,-1.643881531E0,1.086246140E1,3.137774963E0,1.142545604E1
1.331933075E1,-7.982899475E-1,9.713151398E0,3.103645935E0,1.022815697E1
1.332928275E1,8.419990540E-1,8.559201050E0,3.508254547E0,9.288527062E0
1.333923575E1,2.201472015E0,8.132288818E0,4.024081879E0,9.336692960E0
1.334918775E1,2.460732880E0,8.094267883E0,4.899012451E0,9.776129186E0
1.335914075E1,1.472937012E0,7.832462311E0,6.125112762E0,1.005156782E1
1.336909375E1,-1.131646729E-1,7.226073303E0,4.813689880E0,8.683349117E0
1.337904575E1,-1.975891113E0,6.799610138E0,2.758912811E0,7.599371265E0
1.338899875E1,-3.141816559E0,7.168293457E0,1.429377594E0,7.956039384E0
1.339895175E1,-3.364553375E0,8.345595245E0,2.390229492E0,9.310337074E0
1.340890375E1,-1.477577362E0,8.270451508E0,3.781436462E0,9.213189715E0
1.341885675E1,1.580563202E0,7.730224915E0,4.756059723E0,9.212744507E0
1.342880875E1,3.877237244E0,7.926317139E0,5.196743317E0,1.024039126E1
1.343876175E1,3.828588409E0,7.842491455E0,3.737278290E0,9.493682660E0
1.344871475E1,1.866768036E0,7.208859100E0,3.050207062E0,8.047125918E0
1.345866675E1,-9.684860229E-2,7.863896942E0,2.520159302E0,8.258417383E0
1.346861975E1,-1.397194519E0,9.882149963E0,1.646725616E0,1.011537175E1
1.347857275E1,-1.599124603E0,6.109096069E0,2.840792542E0,6.924475182E0
1.348852475E1,-1.780846710E0,5.120701447E0,2.019450531E0,5.785428139E0
1.349847775E1,-1.446741486E0,5.126090240E0,1.726060638E0,5.599030935E0
1.350842975E1,-1.009351044E0,6.230044556E0,1.960772552E0,6.608848137E0
1.351838275E1,-4.971162415E-1,6.841073914E0,2.483635254E0,7.294920214E0
1.352833575E1,-5.523513794E-1,7.122039642E0,2.710263977E0,7.640292634E0
1.353828775E1,-1.043180695E0,7.275320892E0,2.903961182E0,7.902626816E0
1.354824075E1,-1.346899109E0,6.914271698E0,3.217109985E0,7.744100140E0
1.355819275E1,-1.375339966E0,6.481671295E0,3.644321594E0,7.562056776E0
1.356814575E1,-1.124311981E0,6.713988190E0,4.691843262E0,8.267714801E0
1.357809875E1,-6.945556641E-1,7.348518677E0,5.569767609E0,9.246915460E0
1.358805075E1,-6.201603699E-1,7.830965424E0,5.275180206E0,9.462354071E0
1.359800375E1,-8.827143860E-1,8.697064362E0,4.519102478E0,9.840752024E0
1.360795675E1,-1.619033203E0,9.679770813E0,3.456462250E0,1.040511234E1
1.361790875E1,-2.650987244E0,1.049452652E1,2.348765717E0,1.107607876E1
1.362786175E1,-3.462749176E0,1.093356354E1,2.181713104E0,1.167447282E1
1.363781375E1,-3.940705261E0,1.100556381E1,3.146606598E0,1.210589633E1
1.364776675E1,-4.447700958E0,1.091649902E1,4.262985077E0,1.253495259E1
1.365771975E1,-4.984335022E0,1.055874298E1,4.947212219E0,1.268091313E1
1.366767175E1,-4.821773071E0,9.505982208E0,4.852010193E0,1.171132769E1
1.367762475E1,-4.061653748E0,8.288114777E0,4.116739197E0,1.010630592E1
1.368757775E1,-2.785707092E0,7.613467712E0,3.417992249E0,8.798166037E0
1.369752975E1,-1.645079041E0,7.261699219E0,3.006348267E0,8.029737884E0
1.370748275E1,-1.001417542E0,7.484436035E0,3.624562683E0,8.375982002E0
1.371743475E1,-1.063238983E0,7.961044922E0,3.488345947E0,8.756555877E0
1.372738775E1,-1.040186920E0,8.404422913E0,2.419718170E0,8.807459869E0
1.373734075E1,-4.788542175E-1,8.824748840E0,6.445596313E-1,8.861204804E0
1.374729275E1,6.518943787E-1,8.605155487E0,-1.634600830E0,8.783256065E0
1.375724575E1,1.657802582E0,7.756270752E0,-5.653742981E-1,7.951584337E0
1.376719775E1,2.030078430E0,6.962920532E0,2.322420502E0,7.615583875E0
1.377715075E1,1.903292084E0,6.596931610E0,3.233276367E0,7.589209675E0
1.378710375E1,1.556163940E0,6.797514496E0,3.645818481E0,7.868916185E0
1.379705575E1,1.078507233E0,7.744744720E0,4.508773956E0,9.026255659E0
1.380700875E1,7.412585449E-1,8.990005188E0,4.171225891E0,9.938248485E0
1.381696175E1,8.728349304E-1,1.024035507E1,3.597469025E0,1.088891621E1
1.382691375E1,1.291963348E0,1.114612152E1,4.013603668E0,1.191697146E1
1.383686675E1,1.988764343E0,1.166224823E1,4.534520416E0,1.266984975E1
1.384681875E1,2.629432068E0,1.160162430E1,4.842579803E0,1.284376029E1
1.385677175E1,2.949466553E0,1.247326172E1,5.226830750E0,1.384201468E1
1.386672475E1,2.789299622E0,1.440005493E1,3.490441589E0,1.507729939E1
1.387667675E1,2.358495483E0,1.688189392E1,1.577719116E0,1.711870442E1
1.388662975E1,2.131268005E0,1.846799561E1,-2.757266235E-1,1.859261117E1
1.389658175E1,1.680555267E0,1.788780212E1,-1.833836517E0,1.805991936E1
1.390653475E1,1.745819550E0,1.436772217E1,-2.762954407E0,1.473476309E1
1.391648775E1,2.569107513E0,9.895322571E0,-2.305805054E0,1.048019366E1
1.392643975E1,3.335513763E0,5.584287415E0,2.646496582E-1,6.509989050E0
1.393639275E1,3.665278015E0,1.797312469E0,4.287384338E0,5.919988134E0
1.394634575E1,3.354823608E0,-8.475375366E-1,7.470514984E0,8.232967597E0
1.395629775E1,2.919379120E0,-4.690346375E0,5.276826782E0,7.639831441E0
1.396625075E1,1.960323486E0,-1.145283371E1,6.864125977E0,1.349542491E1
1.397620275E1,9.994715881E-1,-1.742466522E1,1.110046646E1,2.068425143E1
1.398615575E1,9.943821716E-1,-1.938783279E1,9.633367310E0,2.167207009E1
1.399610875E1,3.041824493E0,-1.520493118E1,6.006708984E0,1.662898618E1
1.400606075E1,6.834936676E0,-6.271358643E0,2.852917328E0,9.704918128E0
1.401601375E1,6.676566010E0,1.120869141E0,3.677851868E-1,6.779981361E0
1.402596704E1,2.817441101E0,-2.655926971E0,6.256988525E-1,3.922170507E0
1.403591904E1,1.409618683E0,-5.371280365E0,2.335144043E-1,5.558075797E0
1.404587204E1,1.595382385E0,-4.144281921E0,5.730084229E-1,4.477572585E0
1.405582404E1,3.293151855E0,-3.695664825E0,-1.082399139E0,5.066988804E0
1.406577704E1,4.176015930E0,-1.434017944E0,-1.311273193E0,4.605969377E0
1.407573004E1,4.471800842E0,4.159849548E0,-4.074526978E-1,6.121059446E0
1.408568204E1,5.404660950E0,1.297127609E1,-3.897894287E0,1.458279614E1
1.409563504E1,8.184530182E0,2.545711166E1,-1.878892822E0,2.680636691E1
1.410558704E1,5.784870300E0,1.993105316E1,1.144714554E1,2.370123932E1
1.411554004E1,-7.349716187E-2,-6.698420563E0,3.501817932E0,7.558899966E0
1.412549304E1,-3.925137634E0,-8.158035278E-1,3.192111969E0,5.124628735E0
1.413544504E1,4.269721069E0,7.404651947E0,3.478765869E0,9.228282638E0
1.414539804E1,1.236548584E1,1.050545380E1,-4.067790985E0,1.672772319E1
1.415535104E1,2.355786118E1,1.933858521E1,-2.560844696E1,3.980887158E1
1.417401104E1,3.537683350E1,5.712106613E1,-6.381379852E0,6.749117389E1
1.418396404E1,1.961281494E1,1.906285858E0,-1.284883072E1,2.352421915E1
1.419391704E1,1.233420090E1,-3.675112564E1,4.011732559E1,5.578689416E1
1.420386904E1,1.217612961E1,-2.062830322E1,3.196288284E1,3.994259513E1
1.421382204E1,5.127886505E0,-9.811197510E0,-1.509476028E1,1.871915075E1
1.422377504E1,1.726060638E0,-1.102532272E1,-5.159889954E1,5.279188820E1
1.423372704E1,2.003927811E1,2.009720764E0,-2.933809113E1,3.558560433E1
1.424368004E1,1.987596771E1,7.533833313E0,-2.030692154E1,2.939700324E1
1.425363204E1,1.736389160E1,1.005129822E1,-1.995994308E1,2.830075362E1
1.426358504E1,2.118993530E1,1.396341293E1,-1.719668930E1,3.065479378E1
1.427353804E1,2.387654846E1,1.032462982E1,-1.141675873E1,2.840827216E1
1.428349004E1,1.939397003E1,4.839885406E0,-8.222401428E0,2.161384856E1
1.429344304E1,1.328652054E1,7.111711121E0,-8.619375916E0,1.736092464E1
1.430339604E1,1.633448227E1,1.424677368E1,-2.980092865E1,3.684943988E1
1.431334804E1,3.279934341E1,1.745774643E1,-3.437990662E1,5.062161414E1
1.432330104E1,3.226465530E1,2.532733154E-1,-2.062411194E0,3.233149655E1
1.433325304E1,1.654823776E1,-5.441184998E-1,8.057444458E0,1.841365388E1
1.434320604E1,3.218457184E0,6.111191711E0,-5.526058502E0,8.845476434E0
1.435315904E1,-1.288969574E0,1.309955933E1,-8.990304565E0,1.594005876E1
1.436311104E1,5.698649597E-1,1.254451355E1,-3.538491669E0,1.304647422E1
1.437306404E1,4.900808716E-1,1.191267746E1,-4.504432983E0,1.274527285E1
1.438301604E1,-1.247805176E0,6.085894318E0,-1.753079453E1,1.859902912E1
1.439296904E1,-8.073910217E0,-1.368005219E0,-8.755892029E0,1.198854077E1
1.440292204E1,-4.212689667E0,-2.704575806E0,9.051826630E0,1.034393783E1
1.441287404E1,2.460194000E1,1.365071320E1,-1.019395157E1,2.992514112E1
1.442282704E1,1.975277390E1,1.132380203E1,-4.943170624E0,2.329883055E1
1.443277904E1,1.389740021E1,8.829239502E0,6.380781097E0,1.765807379E1
1.444273204E1,1.399379974E1,1.613300125E1,-1.458731552E1,2.586290654E1
1.445268504E1,1.254645950E1,7.487878876E0,-1.604258926E1,2.169900105E1
1.446263704E1,1.275677216E1,6.957382050E0,-1.030008087E1,1.781100971E1
1.447259004E1,1.680944458E1,4.577780457E0,-1.379351624E1,2.222103938E1
1.448254304E1,1.624392059E1,3.404220886E0,-1.350521576E1,2.139730190E1
1.449249504E1,1.364577347E1,2.866239624E0,-1.255843460E1,1.876530689E1
1.450244804E1,1.320643707E1,4.493805084E0,-1.023376877E1,1.730127994E1
1.451240004E1,1.250035538E1,5.490282898E0,-1.004950195E1,1.695271602E1
1.452235304E1,6.158643036E0,6.540798340E0,-9.647737427E0,1.318293459E1
1.453230604E1,5.224136353E0,8.372988281E0,-9.479487305E0,1.368426881E1
1.454225804E1,2.963387604E0,4.895719299E0,-1.205667801E1,1.334590642E1
1.455221104E1,2.737806702E-1,7.389982452E0,-1.010997620E1,1.252590976E1
1.456216404E1,-5.216651917E-1,1.042222687E1,-1.385683456E1,1.734666572E1
1.457211604E1,5.087620239E0,6.073769531E0,-1.167212769E1,1.410720102E1
1.458206904E1,6.325096893E0,2.363285522E0,-1.066592010E1,1.262354233E1
1.459202104E1,8.301886139E0,2.544857941E0,-9.580527191E0,1.292996971E1
1.460197404E1,1.052596115E1,2.325114899E0,-8.605604553E0,1.379342043E1
1.461192704E1,1.126108246E1,-3.667373657E-2,-7.822133789E0,1.371127639E1
1.462187904E1,1.245978973E1,-1.630409546E0,-1.011686188E1,1.613243595E1
1.463183204E1,1.229378494E1,-1.613644409E0,-1.137619308E1,1.682732200E1
1.464178404E1,1.170910080E1,-2.477797394E0,-1.069421127E1,1.605019240E1
1.465173704E1,1.125719055E1,-3.018173676E0,-1.104687790E1,1.605824470E1
1.466169004E1,1.074435699E1,-1.909129944E0,-1.084614532E1,1.538586536E1
1.467164204E1,1.029080017E1,-4.885839844E-1,-1.111738129E1,1.515702640E1
1.468159504E1,1.067355423E1,5.066963196E-1,-9.969717865E0,1.461426616E1
1.469154804E1,1.049841843E1,1.595382385E0,-7.664810944E0,1.309623462E1
1.470150004E1,8.724607086E0,2.446961517E0,-8.129893799E0,1.217380642E1
1.471145304E1,8.504564667E0,2.174677734E0,-8.656049652E0,1.232818068E1
1.472140504E1,8.011340332E0,1.493144989E0,-9.231453094E0,1.231384514E1
1.473135804E1,7.193441162E0,1.477277985E0,-9.194779358E0,1.176740895E1
1.474131104E1,6.189029846E0,1.773661652E0,-9.469907227E0,1.145116190E1
1.475126304E1,5.645510101E0,1.191073151E0,-9.961035919E0,1.151141504E1
1.476121604E1,6.157595215E0,1.531465302E0,-8.275091858E0,1.042777589E1
1.477116904E1,6.178551636E0,1.478325806E0,-7.397915955E0,9.751364416E0
1.478112104E1,5.772895203E0,1.213975525E0,-6.796616364E0,8.999669416E0
1.479107404E1,5.987997894E0,1.841171265E0,-6.044879608E0,8.705549947E0
1.480102604E1,5.998476105E0,3.110681305E0,-5.785319366E0,8.895390600E0
1.481097904E1,5.247338104E0,4.142934723E0,-6.946454773E0,9.641146157E0
1.482093204E1,4.334236908E0,4.289929047E0,-6.631509705E0,9.009218710E0
1.483088404E1,5.611830139E0,4.177512817E0,-6.484814758E0,9.539238612E0
1.484083704E1,5.472469940E0,5.399272156E0,-6.557264099E0,1.010434459E1
1.485078904E1,4.899162140E0,6.461313629E0,-6.542744293E0,1.041911063E1
1.486074204E1,3.822750549E0,7.139104156E0,-6.952741699E0,1.067337093E1
1.487069504E1,2.117047577E0,6.892417145E0,-7.163353729E0,1.016370706E1
1.488064704E1,1.053509216E0,6.003266144E0,-7.317982178E0,9.523757096E0
1.489060004E1,1.800605621E0,6.082601166E0,-7.472460938E0,9.801932973E0
1.490055204E1,2.483635254E0,6.860383759E0,-8.105793915E0,1.090583350E1
1.491050504E1,3.012784882E0,7.035220184E0,-7.960745544E0,1.104285585E1
1.492045804E1,3.001857605E0,6.767576752E0,-7.242688751E0,1.035701620E1
1.493041004E1,2.923570404E0,6.964267731E0,-7.262896729E0,1.047845207E1
1.494036304E1,2.884052582E0,7.038064270E0,-7.267387390E0,1.051983971E1
1.495031604E1,2.924169159E0,7.059469757E0,-7.368127899E0,1.061490402E1
1.496026804E1,3.110531616E0,6.995852051E0,-7.603887634E0,1.079057274E1
1.497022104E1,3.269800415E0,6.882088623E0,-7.741750946E0,1.086229471E1
1.498017304E1,3.439697113E0,6.770121460E0,-7.332052917E0,1.055580697E1
1.499012604E1,3.191064148E0,6.657405853E0,-7.177274780E0,1.029646621E1
1.500007904E1,3.063379669E0,6.236630859E0,-6.981631622E0,9.850027390E0
1.501003104E1,3.547323303E0,6.165528717E0,-7.354206848E0,1.023140290E1
1.501998404E1,3.697311401E0,6.054609375E0,-7.679330750E0,1.045468924E1
1.502993604E1,3.404669952E0,5.738017731E0,-7.750432892E0,1.022672161E1
1.503988900E1,2.987038422E0,5.765261078E0,-7.494016113E0,9.915690159E0
1.504984200E1,2.564167786E0,5.769152985E0,-7.710915070E0,9.965756058E0
1.505979400E1,3.006797333E0,5.965394897E0,-7.732919312E0,1.021884571E1
1.506974700E1,3.310366058E0,6.269412689E0,-7.915988617E0,1.062670855E1
1.507970000E1,3.166515198E0,6.238127747E0,-7.895780640E0,1.054914253E1
1.508965200E1,3.197800140E0,5.851332092E0,-8.041727142E0,1.044669270E1
1.509960500E1,3.092568970E0,5.576653290E0,-7.873626709E0,1.013198116E1
1.510955700E1,2.937042389E0,5.714666290E0,-7.940986633E0,1.021483713E1
1.511951000E1,2.787653046E0,5.653144226E0,-8.111332397E0,1.027242729E1
1.512946300E1,2.614463196E0,5.477559357E0,-7.927364960E0,9.984096830E0
1.513941500E1,2.309397583E0,5.119354248E0,-8.050259399E0,9.815690577E0
1.514936800E1,2.081571350E0,4.765041046E0,-8.311615906E0,9.804158017E0
1.515932000E1,2.051633606E0,4.611161041E0,-8.148904266E0,9.585230688E0
1.516927300E1,2.182461548E0,4.520150299E0,-7.925269318E0,9.381086872E0
1.517922600E1,2.342927856E0,4.654271393E0,-7.680228882E0,9.281027358E0
1.518917800E1,2.172282715E0,4.971012726E0,-7.588170319E0,9.327920910E0
1.519913100E1,1.729653168E0,5.525010681E0,-7.494614868E0,9.470305968E0
1.520908400E1,1.220561829E0,6.260131989E0,-7.312593384E0,9.703249234E0
1.521903600E1,1.162332916E0,7.013515320E0,-7.034771118E0,1.000142088E1
1.522898900E1,1.083596649E0,7.503596191E0,-6.761140137E0,1.015830465E1
1.523894100E1,9.620494080E-1,7.778724060E0,-6.225404205E0,1.000948273E1
1.524889400E1,1.035546570E0,7.617509308E0,-5.842500458E0,9.655755608E0
1.525884700E1,1.374741211E0,7.381001129E0,-6.278992767E0,9.787483907E0
1.526879900E1,1.507515106E0,7.416028290E0,-6.679260406E0,1.009369095E1
1.527875200E1,1.260977783E0,7.576644287E0,-6.582711182E0,1.011571501E1
1.528870400E1,7.634124756E-1,7.454647980E0,-6.335575104E0,9.812955060E0
1.529865700E1,4.625381470E-1,7.156318359E0,-6.286177826E0,9.536396891E0
1.530861000E1,4.977149963E-1,6.963219910E0,-6.427783356E0,9.489496857E0
1.531856200E1,3.845503235E-1,7.080725555E0,-6.402485962E0,9.553867271E0
1.532851500E1,1.779798889E-1,7.069798279E0,-6.486161957E0,9.596041969E0
1.533846800E1,2.344125366E-1,7.162455597E0,-6.042334900E0,9.373661529E0
1.534842000E1,1.116677856E-1,7.282655640E0,-5.437891846E0,9.089566028E0
1.535837300E1,-1.462458801E-1,7.558232574E0,-5.238207092E0,9.197123520E0
1.536832500E1,-1.163081360E-1,7.703730011E0,-5.042863312E0,9.208227519E0
1.537827800E1,5.119354248E-2,7.949219513E0,-4.819228363E0,9.296110674E0
1.538823100E1,-2.365081787E-2,8.160130920E0,-4.990771637E0,9.565359247E0
1.539818300E1,2.634521484E-2,8.178392944E0,-5.019960938E0,9.596187422E0
1.540813600E1,1.675016785E-1,8.121062164E0,-5.186414795E0,9.637354716E0
1.541808800E1,1.993853760E-1,7.880961456E0,-5.151237946E0,9.417248026E0
1.542804100E1,6.077362061E-2,7.640561371E0,-5.033881989E0,9.149963900E0
1.543799400E1,1.273851013E-1,7.389982452E0,-4.956193542E0,8.898984326E0
1.544794600E1,3.529660034E-1,7.399412842E0,-5.091661835E0,8.988932953E0
1.545789900E1,4.854405212E-1,7.545059967E0,-5.013674011E0,9.071962825E0
1.546785200E1,3.101550293E-1,7.444618835E0,-5.012476501E0,8.980170735E0
1.547780400E1,4.113446045E-1,7.618856506E0,-4.915178833E0,9.076076344E0
1.548775700E1,5.186714172E-1,7.835306396E0,-4.979544983E0,9.298221045E0
1.549770900E1,5.680686951E-1,7.704927521E0,-5.104684753E0,9.259936100E0
1.550766200E1,5.800437927E-1,7.464976501E0,-4.882846069E0,8.938932302E0
1.551761500E1,4.296066284E-1,7.003486176E0,-4.528682556E0,8.351188308E0
1.552756700E1,4.689747620E-1,6.872358856E0,-4.213288422E0,8.074716893E0
1.553752000E1,6.174659729E-1,6.871161346E0,-4.103117523E0,8.026811066E0
1.554747200E1,5.888754272E-1,7.036417694E0,-3.911665649E0,8.072117218E0
1.555742500E1,4.861889648E-1,7.410190430E0,-3.908073120E0,8.391682634E0
1.556737800E1,1.727407837E-1,7.649093628E0,-4.213887177E0,8.734719105E0
1.557733000E1,-1.604663086E-1,8.048762512E0,-4.380191345E0,9.164846078E0
1.558728300E1,9.729766846E-3,8.186925201E0,-4.593048706E0,9.387328445E0
1.559723600E1,2.396516418E-1,8.188571777E0,-4.854255524E0,9.522286351E0
1.560718800E1,3.854484558E-1,8.351882172E0,-4.848567352E0,9.664942405E0
1.561714100E1,5.066963196E-1,8.160130920E0,-5.211113434E0,9.695369050E0
1.562709300E1,6.622229004E-1,7.419022064E0,-5.888903961E0,9.495241831E0
1.563704600E1,5.590873718E-1,6.919959869E0,-6.580615540E0,9.565716082E0
1.564699900E1,9.205856323E-2,6.523135071E0,-6.812932434E0,9.432699204E0
1.565695100E1,-1.919009399E-1,5.818250885E0,-6.875801697E0,9.009190769E0
1.566690400E1,-2.433938599E-1,5.342689819E0,-7.274572449E0,9.029007664E0
1.567685600E1,-2.938389587E-1,5.295986938E0,-7.533234558E0,9.213221038E0
1.568680900E1,-2.442919922E-1,5.658083954E0,-7.413782959E0,9.329403538E0
1.569676200E1,1.769320679E-1,6.355932770E0,-7.382647705E0,9.743339954E0
1.570671400E1,6.532415771E-1,6.921456757E0,-6.814579010E0,9.735079623E0
1.571666700E1,8.349636841E-1,7.367828522E0,-6.450086975E0,9.827801558E0
1.572662000E1,1.087937622E0,7.619155884E0,-6.246809692E0,9.912506040E0
1.573657200E1,9.936337280E-1,8.012388153E0,-6.174959106E0,1.016443761E1
1.574652500E1,5.545967102E-1,7.908204803E0,-5.632636871E0,9.724910223E0
1.575647700E1,-3.435356140E-1,7.527097321E0,-4.934638367E0,9.006989875E0
1.576643000E1,-1.042132874E0,7.757019196E0,-4.042942657E0,8.809243614E0
1.577638300E1,-1.746717682E0,8.162975006E0,-3.083887024E0,8.899187760E0
1.578633500E1,-2.186802521E0,8.353229370E0,-2.410138092E0,8.964781748E0
1.579628800E1,-2.249671783E0,8.231233063E0,-2.202220459E0,8.812717845E0
1.580624000E1,-2.490670624E0,8.257428589E0,-2.487527161E0,8.976433503E0
1.581619300E1,-2.981799316E0,8.844507751E0,-2.858605499E0,9.761560835E0
1.582614600E1,-3.047362976E0,9.396410065E0,-3.331771545E0,1.042495299E1
1.583609800E1,-2.369123383E0,9.629475403E0,-4.037853241E0,1.070718455E1
1.584605100E1,-1.320703583E0,9.750124512E0,-4.504882050E0,1.082142080E1
1.585600400E1,-3.037184143E-1,9.655670929E0,-4.772226105E0,1.077489526E1
1.586595600E1,2.023791504E-1,9.815538483E0,-4.773423615E0,1.091656201E1
1.587590900E1,2.185455322E-1,9.950557709E0,-4.725972290E0,1.101799324E1
1.588586100E1,5.972579956E-2,1.003198837E1,-4.704866180E0,1.108061928E1
1.589581400E1,-1.074765015E-1,9.575886841E0,-5.032684479E0,1.081836739E1
1.590576700E1,-2.201921082E-1,8.910221100E0,-5.280269623E0,1.035962219E1
1.591571900E1,-2.362088013E-1,8.212222595E0,-5.426814880E0,9.846152258E0
1.592567200E1,-2.323168945E-1,7.797135773E0,-5.637426910E0,9.624441780E0
1.593562400E1,-3.884422302E-1,7.810308380E0,-5.670358429E0,9.659439377E0
1.594557700E1,-1.863624573E-1,7.951015778E0,-5.550757141E0,9.698674533E0
1.595553000E1,2.505789185E-1,7.942633209E0,-5.447172546E0,9.634308529E0
1.596548200E1,6.442602539E-1,7.677983551E0,-5.515131226E0,9.475398415E0
1.597543500E1,1.125808868E0,7.318281555E0,-5.690716095E0,9.338572707E0
1.598538800E1,1.619781647E0,6.943610687E0,-5.760021973E0,9.165984676E0
1.599534000E1,1.594035187E0,6.818470917E0,-5.601651306E0,8.967217583E0
1.600529300E1,1.074465637E0,7.239844666E0,-5.099445648E0,8.920435702E0
1.601524500E1,6.927593994E-1,7.955656128E0,-5.377866669E0,9.627763495E0
1.602519800E1,3.658392334E-1,8.691974945E0,-5.048701172E0,1.005851134E1
1.603515004E1,4.272116089E-1,8.923992462E0,-4.693340149E0,1.009195685E1
1.604510204E1,9.654922485E-1,9.134305115E0,-4.383484497E0,1.017755577E1
1.605505504E1,2.312840424E0,9.480535126E0,-4.345014496E0,1.068217806E1
1.606500704E1,3.498075714E0,9.799970856E0,-4.628674622E0,1.138861674E1
1.607496004E1,4.202810211E0,1.012269974E1,-5.129084015E0,1.210124648E1
1.608491304E1,4.212090912E0,1.017164795E1,-5.956263885E0,1.251723657E1
1.609486504E1,3.916605377E0,9.843081207E0,-5.979765015E0,1.216485244E1
1.610481804E1,3.762725372E0,9.529333649E0,-5.930966492E0,1.183818675E1
1.611477104E1,3.673660583E0,9.325756989E0,-6.007457428E0,1.168567800E1
1.612472304E1,3.620072021E0,8.980874176E0,-5.844895477E0,1.131034153E1
1.613467604E1,3.695066071E0,8.643326111E0,-5.348078613E0,1.081492230E1
1.614462804E1,3.642076263E0,8.559051361E0,-4.563560028E0,1.036089571E1
1.615458104E1,3.435954895E0,8.655301208E0,-3.767066345E0,1.004543747E1
1.616453404E1,3.284469910E0,9.007967834E0,-2.779569855E0,9.982847072E0
1.617448604E1,3.173101501E0,9.613758087E0,-2.088007965E0,1.033695772E1
1.618443904E1,2.846780090E0,9.855804749E0,-1.984123993E0,1.044881774E1
1.619439204E1,2.182461548E0,9.888885956E0,-1.860181732E0,1.029628476E1
1.620434404E1,1.714534607E0,9.815538483E0,-1.951641541E0,1.015348853E1
1.621429704E1,1.495240631E0,9.511371002E0,-1.681303711E0,9.773878711E0
1.622424904E1,1.480720825E0,9.297765198E0,-1.566342773E0,9.544338716E0
1.623420204E1,1.808389435E0,9.181307373E0,-1.606159973E0,9.494547240E0
1.624415504E1,2.413131866E0,9.234596558E0,-1.535207520E0,9.667359573E0
1.625410704E1,2.939437408E0,9.325307922E0,-1.540147247E0,9.898167187E0
1.626406004E1,3.188070374E0,9.034163361E0,-1.686542816E0,9.727503637E0
1.627401204E1,3.293002167E0,8.974736938E0,-1.572929077E0,9.688336920E0
1.628396504E1,3.385210419E0,9.213191071E0,-1.573527832E0,9.940750933E0
1.629391804E1,3.273392944E0,9.587113495E0,-1.526375885E0,1.024488506E1
1.630387004E1,3.087479553E0,9.870773621E0,-1.823507996E0,1.050189903E1
1.631382304E1,3.104394379E0,1.024574387E1,-2.376458130E0,1.096631593E1
1.632377604E1,3.439996490E0,1.057490936E1,-2.783910828E0,1.146352666E1
1.633372804E1,3.682791595E0,1.042072998E1,-2.910846863E0,1.142924305E1
1.634368104E1,3.945794678E0,1.012838791E1,-2.796185303E0,1.122373331E1
1.635363304E1,4.021686859E0,9.772128754E0,-2.616109772E0,1.088634447E1
1.636358604E1,3.852089539E0,9.580676880E0,-2.439626770E0,1.061036013E1
1.637353904E1,3.793411560E0,9.764195251E0,-2.154619446E0,1.069447825E1
1.638349104E1,3.837869110E0,1.009246262E1,-1.815724182E0,1.094915044E1
1.639344404E1,3.879033508E0,1.031879196E1,-1.489103394E0,1.112392905E1
1.640339604E1,3.602857819E0,1.062340851E1,-1.209933929E0,1.128278923E1
1.641334904E1,3.269800415E0,1.061727127E1,-1.466949463E0,1.120580139E1
1.642330204E1,3.038830719E0,1.057101746E1,-1.420995026E0,1.109054232E1
1.643325404E1,2.697540436E0,1.032492920E1,-1.219813385E0,1.074098841E1
1.644320704E1,2.408192139E0,1.031235535E1,-9.848020935E-1,1.063550174E1
1.645316004E1,1.977537689E0,1.029274612E1,-6.346801758E-1,1.050019509E1
1.646311204E1,1.652563477E0,1.050739975E1,-3.101550293E-1,1.064108132E1
1.647306504E1,1.722767487E0,1.041638901E1,-3.751199341E-1,1.056455407E1
1.648301704E1,1.875449982E0,1.027553192E1,-3.457809448E-1,1.045100155E1
1.649297004E1,2.138153687E0,9.985435181E0,-2.640509033E-1,1.021520141E1
1.650292304E1,2.334694977E0,9.765243073E0,-2.881507874E-1,1.004459077E1
1.651287504E1,2.383493500E0,9.488169250E0,-2.757266235E-1,9.786849450E0
1.652282804E1,2.361638947E0,9.259295197E0,-2.728825378E-1,9.559620857E0
1.653278104E1,2.250719604E0,9.177415466E0,-3.376977539E-1,9.455407614E0
1.654273304E1,1.964215393E0,9.249266052E0,-5.800437927E-1,9.473305411E0
1.655268604E1,1.795965271E0,9.338480530E0,-1.101559296E0,9.573199191E0
1.656263804E1,1.541344757E0,9.318272552E0,-1.589694214E0,9.577738497E0
1.657259104E1,1.465452576E0,9.335935822E0,-1.645228729E0,9.592394200E0
1.658254404E1,1.532213745E0,9.194629669E0,-1.644330597E0,9.465342932E0
1.659249604E1,1.685794373E0,9.362730103E0,-1.603465576E0,9.647472182E0
1.660244904E1,1.801503754E0,9.516759796E0,-1.715732117E0,9.836557807E0
1.661240104E1,1.972448273E0,9.726324005E0,-1.773362274E0,1.008150508E1
1.662235404E1,2.073188782E0,9.839788055E0,-1.788630524E0,1.021365458E1
1.663230704E1,2.096390533E0,9.850415955E0,-1.780996399E0,1.022729172E1
1.664225904E1,2.224823456E0,9.927206268E0,-1.748513947E0,1.032262393E1
1.665221204E1,2.399061127E0,9.946366425E0,-1.671124878E0,1.036717694E1
1.666216504E1,2.564616852E0,9.800868988E0,-1.549577637E0,1.024868203E1
1.667211704E1,2.871029663E0,9.735305328E0,-1.561103668E0,1.026917844E1
1.668207004E1,2.897973633E0,9.509874115E0,-1.500180359E0,1.005417813E1
1.669202204E1,2.695295105E0,9.191635895E0,-1.398541718E0,9.680222366E0
1.670197504E1,2.470911713E0,9.069040833E0,-1.291065216E0,9.487874140E0
1.671192804E1,2.282004547E0,9.125473480E0,-1.238225098E0,9.487624170E0
1.672188004E1,2.074236603E0,9.058862000E0,-1.194515991E0,9.369754888E0
1.673183304E1,1.977537689E0,8.886719971E0,-1.154249725E0,9.176967886E0
1.674178504E1,1.930236053E0,8.574169922E0,-9.707313538E-1,8.842201108E0
1.675173804E1,1.959874420E0,8.310568085E0,-7.294331360E-1,8.569639568E0
1.676169104E1,1.981429596E0,8.118966522E0,-2.827619934E-1,8.362035337E0
1.677164304E1,1.939666443E0,8.088130646E0,7.963439941E-2,8.317842562E0
1.678159604E1,1.904339905E0,8.141868896E0,2.444416809E-1,8.365183282E0
1.679154904E1,1.828597412E0,8.412805481E0,5.257067871E-1,8.625278673E0
1.680150104E1,1.635648651E0,9.085207214E0,5.580395508E-1,9.248121149E0
1.681145404E1,1.568139038E0,9.276509399E0,3.680845642E-1,9.415315870E0
