"Time (s)","Acceleration x (m/s^2)","Acceleration y (m/s^2)","Acceleration z (m/s^2)","Absolute acceleration (m/s^2)"
1.969916630E-3,-3.198249207E0,6.920259247E0,5.976322174E0,9.686857734E0
1.192391664E-2,-3.248694305E0,6.796915741E0,5.611680450E0,9.393776437E0
2.187791665E-2,-3.316353607E0,6.953340454E0,4.793631592E0,9.073370298E0
3.183091665E-2,-3.405268707E0,7.176226959E0,4.910089417E0,9.338258211E0
4.178491666E-2,-3.519481201E0,7.172784119E0,5.519921265E0,9.711081850E0
5.173891666E-2,-3.435356140E0,7.323520660E0,6.049070892E0,1.010083587E1
6.169291667E-2,-3.282673645E0,7.368576965E0,6.393205261E0,1.029295615E1
7.164591667E-2,-3.097508698E0,7.301217041E0,6.594386902E0,1.031446892E1
8.159991668E-2,-3.119363251E0,7.344926147E0,6.802903290E0,1.048607936E1
9.155391669E-2,-3.206931152E0,7.477400665E0,6.927444305E0,1.068575747E1
1.015069167E-1,-3.016676788E0,7.369175720E0,6.706803131E0,1.041087402E1
1.114602917E-1,-2.610421600E0,7.144043884E0,6.502028961E0,1.000640018E1
1.214142917E-1,-2.345023499E0,7.454498291E0,6.545438690E0,1.019369647E1
1.313682917E-1,-2.618055725E0,7.692802734E0,6.574178925E0,1.045242834E1
1.413212917E-1,-2.628384247E0,7.101831665E0,6.530320129E0,9.999474873E0
1.512752917E-1,-2.314037933E0,6.985224152E0,6.415209503E0,9.762327641E0
1.612292917E-1,-2.218985596E0,6.965165863E0,6.308032379E0,9.655501285E0
1.711822917E-1,-2.071093140E0,6.943760376E0,5.977519684E0,9.393400690E0
1.811362917E-1,-1.904938660E0,7.264243927E0,5.792504425E0,9.484257411E0
1.910902917E-1,-2.431693268E0,6.640491028E0,5.808970184E0,9.151687705E0
2.010442917E-1,-2.230212250E0,6.438261566E0,5.898334351E0,9.011959098E0
2.109972917E-1,-1.848356323E0,6.140081635E0,6.127657471E0,8.869340993E0
2.209512917E-1,-1.643731842E0,5.706732788E0,6.146368561E0,8.546724517E0
2.309052916E-1,-1.405876465E0,5.759572906E0,7.259753265E0,9.373003050E0
2.408582916E-1,-9.135502625E-1,6.683152313E0,7.651788025E0,1.020043915E1
2.508122916E-1,-1.558259583E0,6.149512024E0,6.896458740E0,9.370475666E0
2.607662916E-1,-1.850601654E0,5.666167145E0,6.624025269E0,8.911110332E0
2.707192916E-1,-1.401086426E0,5.795498199E0,6.468648376E0,8.797400433E0
2.806732917E-1,-9.621990967E-1,5.783822479E0,6.677613831E0,8.886447887E0
2.906272917E-1,-4.598437500E-1,5.709427185E0,6.920558624E0,8.983493014E0
3.005812917E-1,-1.736389160E-2,5.470523987E0,7.069498901E0,8.938945626E0
3.105342917E-1,3.911366272E-1,5.418132935E0,7.386240234E0,9.168734763E0
3.204882917E-1,6.239025879E-1,5.417683868E0,7.525301056E0,9.293584288E0
3.304422917E-1,5.040019226E-1,5.557642822E0,7.439978485E0,9.300252230E0
3.403952917E-1,-6.511459351E-2,5.455255737E0,7.413633270E0,9.204673451E0
3.503492917E-1,-5.053491211E-1,5.214107208E0,7.184310150E0,8.891378074E0
3.603032917E-1,-9.452842712E-1,4.928950195E0,7.345674591E0,8.896462644E0
3.702572917E-1,-1.744023285E0,5.055586853E0,7.361990662E0,9.099422078E0
3.802102917E-1,-2.916235657E0,5.640720062E0,7.350913696E0,9.713809006E0
3.901642917E-1,-3.725602570E0,6.601272583E0,8.065078583E0,1.106808054E1
4.001182917E-1,-3.748804321E0,7.185208282E0,7.691156158E0,1.117294209E1
4.100712917E-1,-3.289709015E0,6.496490479E0,7.118147736E0,1.018305461E1
4.200252916E-1,-2.444566498E0,5.578150177E0,6.702162781E0,9.055973206E0
4.299792916E-1,-1.342408447E0,5.101541290E0,6.437962189E0,8.323168935E0
4.399332916E-1,-9.674382019E-1,4.990621948E0,7.086713104E0,8.721453246E0
4.498862916E-1,-2.069596252E0,5.461093597E0,7.745343475E0,9.700366873E0
4.598402916E-1,-3.345692596E0,6.390660553E0,8.154293060E0,1.088699667E1
4.697942917E-1,-2.986289978E0,6.491550751E0,9.089847565E0,1.156215757E1
4.797472917E-1,-8.152047729E-1,5.598507843E0,9.675429840E0,1.120811275E1
4.897012917E-1,5.548960876E-1,4.918621674E0,8.498876495E0,9.835224986E0
4.996552917E-1,1.945953369E-3,5.964646454E0,8.120613098E0,1.007578127E1
5.096082917E-1,-1.844165039E-1,7.437733154E0,7.552394714E0,1.060153526E1
5.195622917E-1,-2.808160400E-1,8.417146454E0,8.443341980E0,1.192548682E1
5.295162917E-1,-2.130070496E-1,9.267977142E0,9.112600250E0,1.299924058E1
5.394702917E-1,7.539820862E-1,1.016910324E1,8.646020508E0,1.336909946E1
5.494232917E-1,1.997146912E0,1.108953918E1,8.434510345E0,1.407506447E1
5.593772917E-1,2.526895294E0,1.176014465E1,8.874744873E0,1.494815369E1
5.693312917E-1,2.327060852E0,1.176807816E1,9.654024353E0,1.539815125E1
5.792842917E-1,2.068099365E0,1.129880402E1,1.070708450E1,1.570291902E1
5.892382917E-1,1.710942078E0,1.066666855E1,1.166254761E1,1.589717451E1
5.991922917E-1,1.165476379E0,1.012434631E1,1.174322983E1,1.554876748E1
6.091462916E-1,7.315287781E-1,9.679770813E0,1.142933258E1,1.499542399E1
6.190992916E-1,-1.731898499E-1,9.170978851E0,1.126512405E1,1.452721129E1
6.290532916E-1,-1.127904510E0,8.386460266E0,1.116198853E1,1.400695799E1
6.390072916E-1,-2.652783508E0,7.387587433E0,1.102202957E1,1.353140216E1
6.489602916E-1,-4.252207489E0,6.159541168E0,1.050335815E1,1.289735432E1
6.589142916E-1,-5.342240753E0,4.945565643E0,9.801168365E0,1.220905636E1
6.688682917E-1,-5.980962524E0,3.911366272E0,9.635013885E0,1.199600731E1
6.788222917E-1,-6.185287628E0,3.132236481E0,9.779762878E0,1.198801278E1
6.887752917E-1,-5.953120422E0,2.367177429E0,9.838440857E0,1.174044676E1
6.987292917E-1,-5.952222290E0,1.737886047E0,9.362430725E0,1.122961741E1
7.086832917E-1,-6.093678131E0,1.082548828E0,8.622220001E0,1.061355279E1
7.186362917E-1,-6.142476654E0,3.989204407E-1,7.981252899E0,1.007916439E1
7.285902917E-1,-5.706882477E0,-2.514770508E-1,7.070696411E0,9.089911773E0
7.385442917E-1,-5.422922974E0,-4.611909485E-1,5.837560730E0,7.981096788E0
7.484972917E-1,-5.464985504E0,-3.092568970E-1,4.806055756E0,7.284221188E0
7.584512917E-1,-6.097570038E0,1.227447510E-1,3.858077087E0,7.216660270E0
7.684052917E-1,-6.502328339E0,5.602848816E-1,2.598745880E0,7.024789899E0
7.783592917E-1,-6.020180969E0,1.016835480E0,2.073338470E0,6.447888469E0
7.883122917E-1,-5.831722870E0,1.844464417E0,1.930535431E0,6.413891772E0
7.982662916E-1,-5.461842041E0,2.782264252E0,1.992057495E0,6.445231254E0
8.082202916E-1,-4.963677979E0,3.788322144E0,1.794767761E0,6.496974300E0
8.181732916E-1,-4.922962646E0,4.588108978E0,1.689237213E0,6.938287078E0
8.281272916E-1,-4.811594238E0,5.182822266E0,1.685494995E0,7.270074218E0
8.380812916E-1,-4.304897919E0,5.663023682E0,2.155068512E0,7.432785723E0
8.480352917E-1,-3.920347595E0,6.081253967E0,3.163820801E0,7.896868819E0
8.579882917E-1,-3.788471832E0,6.511609039E0,4.000880127E0,8.529983171E0
8.679422917E-1,-3.870201874E0,6.742429047E0,4.837340698E0,9.156346270E0
8.778962917E-1,-3.796255646E0,6.785838776E0,5.423072662E0,9.479919932E0
8.878492917E-1,-3.624412994E0,6.873107300E0,5.803581390E0,9.698326168E0
8.978032917E-1,-3.717968445E0,6.953041077E0,5.714965668E0,9.738013255E0
9.077572917E-1,-3.995341644E0,6.937922516E0,5.147944794E0,9.518343306E0
9.177112917E-1,-4.504732361E0,6.809040527E0,4.678520966E0,9.409793036E0
9.276642917E-1,-4.922663269E0,6.423292694E0,4.529730377E0,9.274144704E0
9.376182917E-1,-4.977898407E0,5.838758240E0,4.622537384E0,8.957590200E0
9.475722917E-1,-4.635111237E0,5.342390442E0,4.617447968E0,8.446669021E0
9.575252917E-1,-4.472100220E0,4.937931519E0,4.523892517E0,8.052853629E0
9.674792917E-1,-4.688101044E0,4.779560852E0,4.042044525E0,7.820525384E0
9.774332917E-1,-4.691693573E0,5.036576385E0,3.339255981E0,7.650471932E0
9.873872916E-1,-4.552782440E0,5.561085663E0,2.783162384E0,7.707106756E0
9.973402916E-1,-4.434977417E0,5.964796143E0,2.307301941E0,7.782766858E0
1.007294292E0,-4.354295197E0,6.191125488E0,2.303559723E0,7.911782913E0
1.017248292E0,-4.065545654E0,6.340664520E0,2.691103821E0,7.998420332E0
1.027201292E0,-3.802841949E0,6.327042847E0,3.006048889E0,7.970533734E0
1.037155292E0,-3.691922607E0,6.199807434E0,3.344944153E0,7.953399031E0
1.047109292E0,-3.365601196E0,6.190975800E0,3.491489410E0,7.864219673E0
1.057062292E0,-2.990780640E0,6.385122070E0,3.237916718E0,7.758779373E0
1.067016292E0,-2.785407715E0,6.772815857E0,2.426304474E0,7.714692746E0
1.076970292E0,-2.922672272E0,7.014712830E0,1.504970398E0,7.746815164E0
1.086924292E0,-2.997217255E0,7.042554932E0,1.067579956E0,7.727911632E0
1.096877292E0,-2.942131805E0,7.240144043E0,1.494342499E0,7.956688056E0
1.106831292E0,-2.273621979E0,7.401358795E0,2.534080353E0,8.146841851E0
1.116785792E0,-1.536554718E0,7.716752930E0,3.414998474E0,8.577382512E0
1.126738792E0,-9.583071899E-1,8.245752869E0,3.368894348E0,8.958808078E0
1.136692792E0,-1.280886383E0,8.657845917E0,2.384541321E0,9.071108155E0
1.146646792E0,-1.986968079E0,9.034911804E0,9.163943481E-1,9.296098755E0
1.156600792E0,-2.367626495E0,9.978848877E0,-1.748214569E0,1.040381345E1
1.166553792E0,-2.506687317E0,1.023287064E1,-2.417921906E0,1.080932325E1
1.176507792E0,-2.816093903E0,1.002180954E1,-1.378333740E0,1.050080260E1
1.186461792E0,-2.940934296E0,9.892478485E0,4.117936707E-1,1.032859134E1
1.196414792E0,-1.916315002E0,1.098879868E1,3.619772644E0,1.172726368E1
1.206368792E0,-7.634124756E-1,1.153112091E1,5.903124390E0,1.297676484E1
1.216322792E0,-9.672885132E-1,1.248613495E1,5.755381622E0,1.378272943E1
1.226275792E0,-1.072369995E0,1.439571396E1,3.474574585E0,1.484786942E1
1.236229792E0,-7.267387390E-1,1.536180496E1,2.260149994E0,1.554417830E1
1.246183792E0,-7.783813477E-3,1.506721756E1,1.316961365E0,1.512466505E1
1.256137792E0,1.402433624E0,1.328936462E1,-2.686912537E-1,1.336586051E1
1.266090792E0,5.529501343E-1,1.147858017E1,-4.140390015E-1,1.149934715E1
1.276044792E0,-7.824229431E-1,9.431586914E0,-9.189390564E-1,9.508494432E0
1.285998792E0,8.984317017E-1,8.583600311E0,-2.972817993E-1,8.635609434E0
1.295951792E0,2.041005707E0,9.026229858E0,2.779420166E0,9.662489649E0
1.305905792E0,1.644779663E0,1.081620758E1,2.198627930E0,1.115928364E1
1.315859792E0,5.763015747E-1,1.192240723E1,7.689509583E-1,1.196107032E1
1.325813792E0,6.788383484E-1,1.180939224E1,-1.317260742E0,1.190200582E1
1.335766792E0,1.353934479E0,1.101020416E1,-8.017327881E-1,1.112207309E1
1.345720792E0,9.611512756E-1,9.812844086E0,8.954379272E-1,9.900380291E0
1.355674792E0,3.144960022E-1,9.437724152E0,2.220332794E0,9.700485690E0
1.365627792E0,5.535488892E-1,8.719068604E0,4.053869934E0,9.631325720E0
1.375581792E0,8.369096375E-1,7.627239075E0,4.355492706E0,8.823010278E0
1.385535792E0,2.640509033E-1,6.610852661E0,4.140539703E0,7.804944896E0
1.395488792E0,-7.509883118E-1,5.708229675E0,3.431763611E0,6.702601805E0
1.405442792E0,-1.360221405E0,5.720653839E0,4.152814178E0,7.198746295E0
1.415396792E0,-1.250050507E0,5.448669434E0,4.939129028E0,7.459599213E0
1.425350792E0,-5.794450378E-1,5.948031006E0,6.501579895E0,8.830932597E0
1.435303792E0,3.397933960E-2,7.157515869E0,6.896608429E0,9.939537003E0
1.445257792E0,1.851649475E0,8.334368591E0,6.153852997E0,1.052426778E1
1.455211792E0,3.561992798E0,9.758656769E0,4.391717377E0,1.127857953E1
1.465164792E0,3.709136810E0,1.215023346E1,7.466473389E-1,1.272569649E1
1.475118792E0,2.991978149E0,1.429871567E1,-3.205733643E0,1.495599984E1
1.485072792E0,2.809956665E0,1.377181137E1,-2.779719543E0,1.432778719E1
1.495026792E0,2.301913147E0,1.202778809E1,3.571572876E0,1.275627780E1
1.504979792E0,-1.936972046E-1,1.125674149E1,8.656798096E0,1.420182737E1
1.514933792E0,-7.634124756E-2,1.023496628E1,5.810616760E0,1.176960619E1
1.524887792E0,-1.208886108E0,8.205636292E0,-3.538341980E0,9.017412963E0
1.534840792E0,-1.415456543E0,7.043902130E0,7.447013855E-1,7.223202517E0
1.544794792E0,-1.474433899E0,7.070546722E0,5.224884796E0,8.914370836E0
1.554748792E0,-1.888472900E0,9.144783325E0,7.124734039E0,1.174543431E1
1.564701792E0,-1.675166473E0,1.037028488E1,5.769452362E0,1.198480587E1
1.574655792E0,-2.461032257E0,1.467099152E1,6.543043671E0,1.625134125E1
1.584609792E0,-1.686842194E0,1.049018555E1,4.785548401E0,1.165293538E1
1.594563792E0,-3.105741577E0,7.712112579E0,3.166066132E0,8.896419838E0
1.604516792E0,-4.411027222E0,7.894583130E0,1.993255005E0,9.260381712E0
1.614470792E0,-4.429438934E0,8.248147888E0,1.405427399E0,9.467158974E0
1.624424792E0,-3.392994232E0,8.832382965E0,8.436456299E-1,9.499217686E0
1.634377792E0,-2.406395874E0,9.129066010E0,1.278491364E0,9.527073395E0
1.644331792E0,-1.915416870E0,9.157357178E0,1.400637360E0,9.459799008E0
1.654285792E0,-1.744322662E0,9.539811859E0,1.981878662E0,9.898409715E0
1.664239792E0,-1.475781097E0,9.618099060E0,8.241860962E-1,9.765502655E0
1.674192792E0,-1.420246582E0,9.345815277E0,-5.334906006E-1,9.468155880E0
1.684146792E0,-1.738634491E0,8.565937042E0,3.091072083E-1,8.746066234E0
1.694100792E0,-1.889969788E0,9.048234100E0,1.463955688E0,9.358722797E0
1.704053792E0,-9.184899902E-1,1.024379791E1,1.769170990E0,1.043594680E1
1.714007792E0,3.583547974E-1,1.044363235E1,7.550299072E-1,1.047701986E1
1.723961792E0,1.440005493E0,1.150821854E1,-1.268761597E0,1.166715328E1
1.733915792E0,2.207459564E0,1.275587402E1,-1.586251373E0,1.304229248E1
1.743868792E0,3.425925751E0,1.239542358E1,-9.889933777E-1,1.289812393E1
1.753822792E0,3.718716888E0,1.111348938E1,-5.945635986E-1,1.173422376E1
1.763776792E0,3.061882782E0,1.060814026E1,1.179996185E0,1.110406038E1
1.773729792E0,4.519701233E0,1.012449600E1,1.832788696E0,1.123798171E1
1.783683792E0,5.175487518E0,8.889564056E0,1.712888031E0,1.042803939E1
1.793637792E0,3.547772369E0,1.031909134E1,1.777254181E0,1.105572102E1
1.803590792E0,2.792293396E0,1.204590042E1,2.166295166E0,1.255362315E1
1.813544792E0,3.317401428E0,1.296753387E1,2.665806427E0,1.364802590E1
1.823498792E0,3.334765320E0,1.393137955E1,3.490591278E0,1.474409113E1
1.833452792E0,1.501228180E0,1.608330460E1,4.963378601E0,1.689856503E1
1.843405792E0,6.972500610E-1,1.507305542E1,5.977519684E0,1.623003077E1
1.853359792E0,1.333726501E0,1.068897217E1,5.970783691E0,1.231597379E1
1.863313792E0,1.898052979E0,6.799011383E0,5.073100433E0,8.692842395E0
1.873266792E0,-3.159928894E-1,5.769602051E0,2.621797943E0,6.345233155E0
1.883220792E0,-1.751956787E0,6.137387238E0,2.693947906E0,6.927786805E0
1.893174792E0,-3.684587860E0,6.211632843E0,-1.112187195E-1,7.223083821E0
1.903128792E0,-3.409459991E0,2.257904663E0,7.402107239E-1,4.155774635E0
1.913081792E0,-2.154020691E0,5.403762817E-2,4.728666687E0,5.196442421E0
1.923035792E0,-1.416504364E0,-2.113604736E-1,4.982838135E0,5.184576525E0
1.932989792E0,-8.887019348E-1,1.121916962E0,3.982169037E0,4.231566972E0
1.942942792E0,-1.136137390E-1,2.877316589E0,8.863069153E-1,3.012872182E0
1.952896792E0,-5.942642212E-2,4.101470947E0,4.155358887E-1,4.122895282E0
1.962850792E0,-9.235794067E-1,6.906038818E0,-1.197509766E-1,6.968551598E0
1.972803792E0,2.287243652E-1,1.230007187E1,5.179229736E-2,1.230230731E1
1.982757792E0,2.460882568E0,1.861498993E1,-4.390370178E0,1.928339035E1
1.992711792E0,1.081650696E0,2.146057251E1,-2.950364685E0,2.168941660E1
2.005153792E0,6.548881531E-1,1.909983170E1,-3.921994171E0,1.950934360E1
2.015106792E0,-3.511697388E-1,1.308354263E1,-7.580236816E-1,1.311018718E1
2.025060792E0,-1.898352356E0,9.177565155E0,7.297325134E-1,9.400210284E0
2.035014792E0,-2.524949341E0,7.291038208E0,1.657503204E0,7.891889773E0
2.044967792E0,-3.278482361E0,6.384373627E0,6.316864014E0,9.560933227E0
2.054921792E0,-2.586321716E0,5.655539246E0,5.848188629E0,8.536714498E0
2.064875792E0,-1.363664246E0,5.011728058E0,1.465452576E-1,5.196005563E0
2.074828792E0,-1.597777405E0,6.964417419E0,-1.076112213E0,7.225926939E0
2.084782792E0,-3.879931641E-1,1.040890457E1,-7.848179626E-1,1.044565806E1
2.094736792E0,1.310075684E0,1.229842529E1,-4.748126221E-1,1.237711639E1
2.104690792E0,1.167122955E0,1.242715759E1,3.543132019E-1,1.248687149E1
2.114643792E0,1.298100586E0,1.071202423E1,1.138382721E0,1.085027389E1
2.124597833E0,7.512876892E-1,7.965535583E0,2.541864166E0,8.394954661E0
2.134551833E0,1.329684906E0,7.402556305E0,3.168161774E0,8.161075347E0
2.144504833E0,2.139051819E0,7.115004272E0,2.354453888E0,7.793733482E0
2.154458833E0,1.279239807E0,7.816445618E0,2.759960632E0,8.387529986E0
2.164412833E0,1.688039703E0,1.082683548E1,1.761836243E-1,1.095905494E1
2.174366833E0,2.438429260E-1,1.461545700E1,-4.417314148E-1,1.462416389E1
2.184319833E0,6.509962463E-1,1.506197845E1,1.607956238E0,1.516154723E1
2.194273833E0,-8.397537231E-2,1.252310806E1,-8.867559814E-1,1.255474506E1
2.204227833E0,-1.726809082E0,1.050290909E1,-1.725910950E-1,1.064531618E1
2.214180833E0,-9.120533752E-1,1.091709778E1,9.295669556E-2,1.095552400E1
2.224134833E0,-1.345252533E0,8.559051361E0,2.399959259E0,8.990376467E0
2.234088833E0,-2.079924774E0,9.257798309E0,2.402054901E0,9.787889678E0
2.244041833E0,-8.199948120E-1,1.134236343E1,4.074676666E0,1.207992507E1
2.253995833E0,-2.065255280E0,1.015338593E1,3.879931641E0,1.106392311E1
2.263949833E0,-2.641107788E0,9.875264282E0,4.073479156E0,1.100406868E1
2.273903833E0,-2.232756958E0,1.071202423E1,4.738097076E0,1.192401907E1
2.283856833E0,-2.293231201E0,1.144774429E1,4.039649506E0,1.235429184E1
2.293810833E0,-2.535726929E0,1.127230911E1,2.700833588E0,1.186546947E1
2.303764833E0,-2.020049286E0,1.053808594E1,1.210981750E0,1.079807071E1
2.313717833E0,-1.714534607E0,9.899364166E0,-6.018983459E-1,1.006475640E1
2.323671833E0,-1.747316437E0,9.228908386E0,-3.288661194E0,9.951942382E0
2.333625833E0,-1.842368774E0,9.038504333E0,-4.730762329E0,1.036672540E1
2.343578833E0,-1.294058990E0,9.537117462E0,-4.253704376E0,1.052260420E1
2.353532833E0,3.354524231E-1,1.087832840E1,-3.264561310E0,1.136256651E1
2.363486833E0,2.480342102E0,1.241203903E1,-2.945574646E0,1.299566158E1
2.373440833E0,1.718276825E0,1.182690582E1,-2.753973083E0,1.226427920E1
2.383393833E0,-4.340972900E-2,9.129215698E0,-3.395089874E0,9.740179615E0
2.393347833E0,-1.365759888E0,8.854237518E0,-2.437082062E0,9.284513508E0
2.403301833E0,-1.226250000E0,1.059317139E1,-1.931882629E0,1.083748770E1
2.413254833E0,-1.328038330E0,1.099134338E1,-1.359922028E0,1.115449251E1
2.423208833E0,-1.562001801E0,1.048898804E1,-2.432441711E-1,1.060744490E1
2.433162833E0,-1.347797241E0,1.024334885E1,2.050735474E-1,1.033367351E1
2.443116833E0,-1.451830902E0,9.749675446E0,2.643502808E-1,9.860723368E0
2.453069833E0,-3.062631226E0,8.385262756E0,4.189787292E-1,8.936883388E0
2.463023833E0,-4.391567688E0,8.830886078E0,7.164102173E-1,9.888562043E0
2.472977833E0,-4.736151123E0,8.555907898E0,-5.209167480E-2,9.779437661E0
2.482930833E0,-4.660109253E0,8.703650665E0,-1.115330658E0,9.935497754E0
2.492884833E0,-4.732109528E0,8.406518555E0,1.621128845E-1,9.648248306E0
2.502838833E0,-4.982688446E0,7.974816284E0,1.755848694E0,9.565975306E0
2.512791833E0,-4.609065399E0,8.150999908E0,2.304158478E0,9.643206399E0
2.522745833E0,-4.082610168E0,7.966583405E0,2.985990601E0,9.436646480E0
2.532699833E0,-3.186723175E0,8.407117310E0,3.008443909E0,9.480799587E0
2.542653833E0,-1.972148895E0,9.062753906E0,3.033142548E0,9.758218759E0
2.552606833E0,-7.752378845E-1,9.682016144E0,2.955903168E0,1.015282197E1
2.562560833E0,2.140548706E-1,1.011910721E1,2.582579498E0,1.044566259E1
2.572514833E0,8.330177307E-1,1.031834290E1,2.021845551E0,1.054751052E1
2.582467833E0,8.672964478E-1,1.022852966E1,1.517244873E0,1.037675548E1
2.592421833E0,3.423381042E-1,9.923164673E0,1.120420074E0,9.992083549E0
2.602375833E0,-5.031037903E-1,9.578730927E0,9.523196411E-1,9.639092918E0
2.612328833E0,-1.466799774E0,9.402247925E0,7.970924377E-1,9.549299659E0
2.622282833E0,-2.305505676E0,9.408235474E0,5.580395508E-1,9.702662485E0
2.632236833E0,-3.021167450E0,9.421857147E0,6.950047302E-1,9.918763856E0
2.642190833E0,-3.471431122E0,9.451495514E0,6.273454285E-1,1.008836775E1
2.652143833E0,-3.660338287E0,9.343869324E0,5.918692017E-1,1.005267524E1
2.662097833E0,-3.587888947E0,9.206604767E0,6.828799438E-1,9.904586990E0
2.672051833E0,-3.243155823E0,9.144184570E0,7.848179626E-1,9.733966837E0
2.682004833E0,-2.803220673E0,9.135951691E0,7.493417358E-1,9.585675379E0
2.691958833E0,-2.445614319E0,9.278754730E0,1.070723419E0,9.655193803E0
2.701912833E0,-2.197580109E0,9.160201263E0,4.433779907E-1,9.430547681E0
2.711866833E0,-1.716480560E0,9.565408630E0,2.093696136E0,9.941172531E0
2.721819833E0,-2.315385132E0,1.051129166E1,4.269122314E0,1.157901835E1
2.731773833E0,-1.263821869E0,9.124425659E0,2.113754425E0,9.450944244E0
2.741727833E0,-2.014810181E-1,9.706565094E0,9.017248535E-1,9.750441438E0
2.751680833E0,-2.549198914E-1,1.033001862E1,1.024170227E0,1.038379475E1
2.761634833E0,-8.008346558E-1,1.060814026E1,1.338815918E0,1.072223876E1
2.771588833E0,-1.474882965E0,1.030636780E1,1.701661377E0,1.054950939E1
2.781541833E0,-2.174078979E0,9.965077515E0,1.795965271E0,1.035639322E1
2.791495833E0,-2.719993744E0,9.304650879E0,6.810836792E-2,9.694304137E0
2.801449833E0,-1.870659943E0,8.096363525E0,3.713777161E-1,8.317956021E0
2.811403833E0,-2.177821198E0,9.003177795E0,6.997947693E-1,9.289231847E0
2.821356833E0,-2.514022064E0,9.329199829E0,5.301974487E-1,9.676537900E0
2.831310833E0,-2.601140900E0,9.587412872E0,1.315015411E0,1.002066291E1
2.841264833E0,-3.002306671E0,9.742041321E0,1.563648376E0,1.031339957E1
2.851217833E0,-3.233426056E0,9.728868713E0,1.481469269E0,1.035860423E1
2.861171833E0,-2.553090820E0,9.281898193E0,1.893861694E0,9.811147686E0
2.871125833E0,-2.026635590E0,9.320218506E0,1.085243225E0,9.599556118E0
2.881079833E0,-1.651066589E0,9.432335358E0,8.178991699E-1,9.610615497E0
2.891032833E0,-2.054028625E0,1.012255005E1,1.556463318E0,1.044545983E1
2.900986833E0,-2.399959259E0,9.895921326E0,1.159339142E0,1.024856724E1
2.910940833E0,-2.695594482E0,9.759704590E0,9.993218994E-1,1.017431607E1
2.920893833E0,-2.978356476E0,9.763746185E0,1.297352142E0,1.029001795E1
2.930847833E0,-3.004402313E0,9.487121429E0,1.756896515E0,1.010537439E1
2.940801833E0,-2.786904602E0,9.109756165E0,1.795516205E0,9.694244327E0
2.950754833E0,-2.831062775E0,9.345366211E0,1.840422821E0,9.936696745E0
2.960708833E0,-2.660866699E0,9.401349792E0,2.032024384E0,9.979715056E0
2.970662833E0,-2.231559448E0,9.021589508E0,1.630708923E0,9.435472771E0
2.980616833E0,-1.882635040E0,8.962312775E0,1.677561493E0,9.310294170E0
2.990569833E0,-1.785337372E0,9.124126282E0,1.840273132E0,9.477537398E0
3.000523833E0,-1.700912933E0,9.165140991E0,1.596430206E0,9.457351828E0
3.010477833E0,-1.810335388E0,9.264384613E0,1.303489380E0,9.529177354E0
3.020430833E0,-1.870210876E0,9.360484772E0,1.597028961E0,9.678164360E0
3.030384833E0,-1.875899048E0,9.249116364E0,1.549278259E0,9.563755218E0
3.040338833E0,-1.867366791E0,9.726623383E0,2.005679169E0,1.010529614E1
3.050291833E0,-1.486259308E0,9.587113495E0,2.505190430E0,1.001986482E1
3.060245833E0,-9.397457886E-1,9.421857147E0,2.486329651E0,9.789604148E0
3.070199833E0,-4.442761230E-1,9.584419098E0,2.529140625E0,9.922450454E0
3.080153833E0,-1.333576813E0,1.078103073E1,2.993624725E0,1.126813382E1
3.090106833E0,-1.397044830E0,9.887838135E0,2.553839264E0,1.030743286E1
3.100060833E0,-1.315614166E0,9.424252167E0,2.624492340E0,9.870933572E0
3.110014833E0,-1.916764069E0,9.462273102E0,2.151625671E0,9.891313855E0
3.119967708E0,-2.118394775E0,1.002764740E1,2.756068726E0,1.061306853E1
3.129921708E0,-4.611909485E-1,8.920100555E0,2.667602692E0,9.321855777E0
3.139875708E0,8.187973022E-1,9.690099335E0,2.401905212E0,1.001686592E1
3.149828708E0,2.145039368E-1,1.139385635E1,1.907483368E0,1.155441333E1
3.159782708E0,5.986051941E-1,1.013692017E1,1.487905884E0,1.026300846E1
3.169736708E0,4.258644104E-1,1.016266663E1,1.861229553E0,1.034047044E1
3.179690708E0,3.682342529E-2,9.844727783E0,1.826651459E0,1.001282561E1
3.189643708E0,-3.299139404E-1,9.495354309E0,2.126777344E0,9.736209659E0
3.199597708E0,-1.112935638E0,9.742490387E0,2.288590851E0,1.006937897E1
3.209551708E0,-2.460732880E0,9.736053772E0,2.329605560E0,1.030888022E1
3.219504708E0,-5.894442444E0,9.164991302E0,1.090781708E0,1.095131600E1
3.229458708E0,-8.521928558E0,8.427774353E0,-3.004851379E0,1.235636592E1
3.239412708E0,-9.957144012E0,7.307653656E0,-4.727169800E0,1.322469860E1
3.249365708E0,-1.013078293E1,7.175328827E0,-6.654711456E0,1.408557031E1
3.259319708E0,-7.702083435E0,8.228089600E0,-6.508465576E0,1.301474824E1
3.269273708E0,-4.457281036E0,7.989036713E0,-2.899620209E0,9.596867155E0
3.279227708E0,-2.148631897E0,1.028241760E1,6.144721985E-1,1.052246677E1
3.289180708E0,-1.398242340E0,1.079165863E1,1.252595215E0,1.095371957E1
3.299134708E0,-6.108796692E-1,1.034977753E1,1.716779938E0,1.050896770E1
3.309088708E0,-4.520599365E-2,9.691745911E0,1.130598907E0,9.757573278E0
3.319041708E0,2.821632385E-1,9.144933014E0,2.626138916E0,9.518719532E0
3.328995708E0,1.270108795E0,9.242080994E0,4.155807953E0,1.021273603E1
3.338949708E0,2.451003113E0,9.747430115E0,5.899232483E0,1.165421615E1
3.348902708E0,-3.153941345E-1,1.089928482E1,5.743705902E0,1.232412433E1
3.358856708E0,-3.542682953E0,1.122665405E1,2.763702850E0,1.209241155E1
3.368810708E0,-5.369035034E0,9.746831360E0,5.578898621E-1,1.114174582E1
3.378764708E0,-5.972579956E0,8.413254547E0,-1.888472900E0,1.048908448E1
3.388717708E0,-5.454656982E0,7.961943054E0,-3.305875397E0,1.020169751E1
3.398671708E0,-3.987108765E0,8.190368042E0,-3.571273499E0,9.784332341E0
3.408625708E0,-2.700833588E0,9.231004028E0,-2.732417908E0,9.998602155E0
3.418578708E0,-2.298320618E0,9.456135864E0,-1.906585236E0,9.916443435E0
3.428532708E0,-2.513572998E0,1.002450394E1,-1.031504974E0,1.038617980E1
3.438486708E0,-3.046913910E0,9.126820679E0,-2.890489197E-1,9.626322733E0
3.448439708E0,-3.536246338E0,9.298663330E0,4.695735168E-1,9.959451650E0
3.458393708E0,-3.371888123E0,9.018895111E0,8.485853577E-1,9.665929632E0
3.468347708E0,-3.127895508E0,8.620274048E0,1.323248291E0,9.265195141E0
3.478301708E0,-1.128353577E0,7.336543579E0,-4.287084961E-1,7.435176155E0
3.488254708E0,-1.139131165E0,9.690698090E0,7.445516968E-1,9.785785942E0
3.498208708E0,-3.502416687E0,9.924661560E0,2.107317810E0,1.073343459E1
3.508162708E0,-7.984695740E0,6.320606232E0,2.198777618E0,1.041825572E1
3.518115708E0,-5.156027985E0,8.535400543E0,-3.554957428E0,1.058656740E1
3.528069708E0,-4.488565979E0,8.600515137E0,-7.719447327E-1,9.732008212E0
3.538023708E0,-7.721992035E0,8.982071686E0,2.965333557E0,1.221065010E1
3.547976708E0,-1.008363098E1,6.762936401E0,-1.024170227E0,1.218465622E1
3.557930708E0,-2.165995789E0,8.759334869E0,-1.668580170E0,9.176145427E0
3.567884708E0,3.589685211E0,9.797126770E0,-4.590953064E-1,1.044415154E1
3.577838708E0,7.247478790E0,1.197090637E1,-5.649252319E-1,1.400527360E1
3.587791708E0,7.620952148E0,1.274554550E1,-3.606001282E-1,1.485455736E1
3.597745708E0,4.971162415E0,1.258986923E1,2.110610962E-2,1.353579360E1
3.607699708E0,2.027533722E0,1.126916565E1,-7.544311523E-2,1.145035716E1
3.617652708E0,6.239025879E-1,9.678124237E0,-6.701564026E-1,9.721340072E0
3.627606708E0,3.764671326E-1,9.575737152E0,-1.306632843E0,9.671802257E0
3.637560708E0,-3.815565491E-1,9.875413971E0,-1.658850403E0,1.002103643E1
3.647513708E0,-2.437531128E0,9.832902374E0,-2.477348328E0,1.042903552E1
3.657467708E0,-4.108356628E0,9.968670044E0,-2.103425903E0,1.098532554E1
3.667421708E0,-4.286037140E0,1.007584717E1,-1.224304047E0,1.101779156E1
3.677375708E0,-4.149820404E0,9.785900116E0,-4.363426208E-1,1.063838547E1
3.687328708E0,-3.673061829E0,9.463021545E0,7.815248108E-1,1.018091062E1
3.697282708E0,-3.475023651E0,9.996961212E0,1.463656311E0,1.068444255E1
3.707236708E0,-2.597548370E0,8.777447205E0,1.049467621E0,9.213697371E0
3.717189708E0,-1.896556091E0,1.039633072E1,5.017565918E-1,1.057980988E1
3.727143708E0,-1.454674988E0,9.304501190E0,-3.278182983E-1,9.423231216E0
3.737097708E0,-1.029259644E0,1.011356873E1,-5.902226257E-1,1.018292740E1
3.747050708E0,-9.912387085E-1,1.004111938E1,-9.446855164E-1,1.013405464E1
3.757004708E0,-1.374591522E0,9.269024963E0,-5.565875702E0,1.089877507E1
3.766958708E0,-1.694476318E-1,1.116064133E1,-4.644841003E-1,1.117158775E1
3.776912708E0,5.152285767E-1,1.096709381E1,2.956651611E0,1.137032963E1
3.786865708E0,-3.682342529E-2,1.100526443E1,3.745810547E0,1.162533001E1
3.796819708E0,-2.915936279E-1,9.697284393E0,3.438499603E0,1.029298941E1
3.806773708E0,-6.574328613E-1,9.720336456E0,1.931283875E0,9.932120428E0
3.816726708E0,-7.810757446E-1,9.037157135E0,2.963836670E-2,9.070896694E0
3.826680708E0,-1.061891785E0,1.069960007E1,-1.242416382E-1,1.075288295E1
3.836634708E0,-1.579066315E0,1.123189316E1,-6.330335999E-1,1.136000026E1
3.846587708E0,-1.501078491E0,9.348958740E0,-9.250762939E-1,9.513781179E0
3.856541708E0,-9.865983582E-1,9.519154816E0,-2.170486450E-2,9.570170104E0
3.866495708E0,-4.872367859E-1,9.211843872E0,1.059646454E0,9.285381942E0
3.876449708E0,-3.430865479E-1,9.735155640E0,1.353485413E0,9.834779432E0
3.886402708E0,-7.933502197E-2,1.018841309E1,1.073717194E0,1.024514148E1
3.896356708E0,2.227368164E-1,1.048569489E1,1.057700500E0,1.054125890E1
3.906310708E0,5.727090454E-1,1.064092209E1,1.036295013E0,1.070659264E1
3.916263708E0,8.575666809E-1,1.048389862E1,7.902067566E-1,1.054855334E1
3.926217708E0,8.701405334E-1,1.007809250E1,7.741900635E-1,1.014516945E1
3.936171708E0,6.987469482E-1,9.467811584E0,1.063837738E0,9.552981431E0
3.946124708E0,6.183641052E-1,8.939260712E0,1.352437592E0,9.062110332E0
3.956078708E0,5.186714172E-1,9.405840454E0,1.335373077E0,9.514309010E0
3.966032708E0,-8.906478882E-2,1.015054184E1,4.584965515E-1,1.016128197E1
3.975985708E0,-6.658154297E-1,1.058628571E1,1.258882141E-1,1.060794999E1
3.985939708E0,-9.680369568E-1,1.063777863E1,7.185058594E-1,1.070587130E1
3.995893708E0,-1.098266144E0,1.007599686E1,6.541397095E-1,1.015676129E1
4.005847708E0,-2.591560822E0,9.281598816E0,1.144220581E0,9.704303417E0
4.015800708E0,-6.292913818E-1,1.079405365E1,5.285508728E-1,1.082529297E1
4.025754708E0,-1.023571472E0,1.024379791E1,3.424877930E-1,1.030050446E1
4.035708708E0,-1.622625732E0,9.497150574E0,9.780661011E-1,9.684286065E0
4.045661708E0,1.032852173E-2,9.621841278E0,1.335073700E0,9.714028929E0
4.055615708E0,6.004014587E-1,1.021251297E1,3.998185730E-1,1.023795673E1
4.065569708E0,4.945715332E-1,9.318721619E0,-2.880310364E0,9.766235785E0
4.075522708E0,3.981719971E-1,9.686806183E0,-2.358645172E0,9.977773399E0
4.085476708E0,1.007405090E-1,1.012554382E1,1.856140137E-2,1.012606196E1
4.095430708E0,2.222877502E-1,9.890981598E0,-3.278182983E-2,9.893533416E0
4.105384708E0,3.674858093E-1,9.511520691E0,-2.113604736E-1,9.520963445E0
4.115337667E0,3.562591553E-1,9.408834229E0,-4.496649170E-1,9.426307902E0
4.125291667E0,1.959425354E-1,9.533824310E0,-4.382885742E-1,9.545904689E0
4.135245667E0,7.783813477E-3,9.857002258E0,-5.385800171E-1,9.871708188E0
4.145198667E0,-1.806742859E-1,9.953252106E0,-6.315367126E-1,9.974903974E0
4.155152667E0,-9.999206543E-2,9.842931519E0,-8.047265625E-1,9.876278861E0
4.165106667E0,1.224453735E-1,9.614506531E0,-6.698570251E-1,9.638591035E0
4.175059667E0,2.372566223E-1,9.395960999E0,-5.294490051E-1,9.413856279E0
4.185013667E0,2.652484131E-1,9.298813019E0,-5.281018066E-1,9.317573278E0
4.194967667E0,2.493814087E-1,9.417965240E0,-3.664379883E-1,9.428389956E0
4.204920667E0,2.950364685E-1,9.573791199E0,-4.730163574E-1,9.590008807E0
4.214874667E0,1.948947144E-1,9.684710541E0,-5.255570984E-1,9.700918125E0
4.224828667E0,9.385482788E-2,9.702822876E0,-5.260061646E-1,9.717523500E0
4.234782667E0,6.286926270E-2,9.481732635E0,-7.405101013E-1,9.510812874E0
4.244735667E0,1.167572021E-1,9.269923096E0,-1.064885559E0,9.331617636E0
4.254689667E0,1.919009399E-1,9.337432709E0,-1.233734436E0,9.420540124E0
4.264643667E0,2.173480225E-1,9.566755829E0,-1.010698242E0,9.622451257E0
4.274596667E0,2.209405518E-1,9.749675446E0,-1.097817078E0,9.813775438E0
4.284550667E0,2.999761963E-1,9.777966614E0,-1.580712891E0,9.909453570E0
4.294504667E0,4.041595459E-1,9.682165833E0,-1.564097443E0,9.816011459E0
4.304457667E0,4.546046448E-1,9.560019836E0,-1.491797791E0,9.686387629E0
4.314411667E0,4.275109863E-1,9.500593414E0,-1.681603088E0,9.657734197E0
4.324365667E0,2.248324585E-1,9.412726135E0,-1.752405853E0,9.577102339E0
4.334319667E0,-1.399589539E-1,9.483678589E0,-1.495989075E0,9.601964976E0
4.344272667E0,-5.888754272E-1,9.591753845E0,-1.215921478E0,9.686432839E0
4.354226667E0,-9.361532593E-1,9.491013336E0,-9.801617432E-1,9.587305884E0
4.364180667E0,-1.117276611E0,9.234147491E0,-6.773414612E-1,9.326123438E0
4.374133667E0,-1.076261902E0,8.973090363E0,-3.881428528E-1,9.045736300E0
4.384087667E0,-1.085991669E0,8.907676392E0,-1.008901978E-1,8.974199431E0
4.394041667E0,-1.218915253E0,9.075477448E0,-2.380050659E-1,9.160059591E0
4.403994667E0,-1.485061798E0,9.298064575E0,-1.321751404E0,9.508230128E0
4.413948667E0,-1.927541656E0,9.617649994E0,-2.214494934E0,1.005577426E1
4.423902667E0,-2.472109222E0,1.003632935E1,-2.529140625E0,1.064123034E1
4.433856667E0,-2.730771332E0,1.000788849E1,-2.115401001E0,1.058725014E1
4.443809667E0,-2.218237152E0,9.758656769E0,-8.110134888E-1,1.004040342E1
4.453763667E0,-1.521286469E0,9.447603607E0,1.225800934E0,9.647492647E0
4.463717667E0,-1.187480621E0,9.287137299E0,1.200802917E0,9.439436269E0
4.473670667E0,-1.614093475E0,9.160650330E0,6.475534058E-1,9.324276788E0
4.483624667E0,-2.423909454E0,9.214238892E0,3.501219177E-1,9.534155482E0
4.493578667E0,-2.313289490E0,9.857750702E0,6.581813049E-1,1.014690888E1
4.503531667E0,-1.293460236E0,1.043105850E1,9.084608459E-1,1.055013374E1
4.513485667E0,2.275268555E-2,1.045051804E1,7.578739929E-1,1.047798730E1
4.523439667E0,9.119036865E-1,9.811945953E0,4.713697815E-1,9.865497514E0
4.533392667E0,1.486708374E0,9.593699799E0,4.263134766E-1,9.717567638E0
4.543346667E0,1.644330597E0,1.007614655E1,7.545808411E-1,1.023728209E1
4.553300667E0,1.404080200E0,1.071711365E1,9.409432983E-1,1.084957789E1
4.563254667E0,9.689350891E-1,1.155327484E1,9.891430664E-1,1.163595285E1
4.573207667E0,7.557783508E-1,1.212149323E1,1.049317932E0,1.219027756E1
4.583161667E0,4.264631653E-1,1.251697083E1,1.644031219E0,1.263167717E1
4.593115667E0,1.222956848E-1,1.311782135E1,1.717079315E0,1.323028929E1
4.603068667E0,7.607180786E-1,1.287532562E1,9.153465271E-1,1.293021891E1
4.613022667E0,2.176773376E0,1.199874847E1,8.634045410E-1,1.222512882E1
4.622976667E0,3.166365509E0,1.113145203E1,2.288740540E0,1.179717882E1
4.632929667E0,2.990481262E0,1.105780518E1,4.155508575E0,1.218549486E1
4.642883667E0,1.847607880E0,1.175101364E1,6.851701813E0,1.372755602E1
4.652837667E0,4.049079895E-1,1.253672974E1,8.012388153E0,1.488394796E1
4.662790667E0,-9.084608459E-1,1.338486603E1,6.797664185E0,1.503955379E1
4.672744667E0,-1.695823517E0,1.350850891E1,4.711602173E0,1.440676318E1
4.682698667E0,-1.786534882E0,1.249691254E1,3.282224579E0,1.304367770E1
4.692652667E0,-8.102650452E-1,1.075348801E1,2.598745880E0,1.109267839E1
4.702605667E0,8.695417786E-1,9.471553802E0,3.022065582E0,9.979945627E0
4.712559667E0,2.530338135E0,9.218130798E0,3.652704163E0,1.023322013E1
4.722513667E0,3.491938477E0,8.990603943E0,3.260370026E0,1.018109062E1
4.732466667E0,3.539539490E0,8.460406494E0,2.577490082E0,9.526293769E0
4.742420667E0,2.940485229E0,7.808063049E0,2.298769684E0,8.654284721E0
4.752374667E0,2.040706329E0,7.313491516E0,2.221530304E0,7.911184322E0
4.762327667E0,1.122815094E0,7.235054626E0,2.547252960E0,7.752111121E0
4.772281667E0,4.296066284E-2,7.429500275E0,1.870959320E0,7.661580041E0
4.782235667E0,-1.115180969E0,7.148085480E0,1.616338806E0,7.412914795E0
4.792189667E0,-1.241368561E0,6.689588928E0,2.276016998E0,7.174388428E0
4.802142667E0,-2.631527710E-1,6.398893433E0,3.581302643E0,7.337630078E0
4.812096667E0,1.247356110E0,5.989345093E0,4.247567139E0,7.447817029E0
4.822050667E0,2.148631897E0,5.549260254E0,3.736529846E0,7.026561299E0
4.832003667E0,2.887645111E0,5.492528229E0,4.122277679E0,7.449800930E0
4.841957667E0,3.400328979E0,6.220913544E0,4.448599091E0,8.369709455E0
4.851911667E0,3.052751770E0,6.826703796E0,4.444108429E0,8.699038902E0
4.861864667E0,1.392105103E0,6.771169281E0,3.787573700E0,7.882411089E0
4.871818667E0,-4.872367859E-1,6.987020416E0,2.866089935E0,7.567716003E0
4.881772667E0,-1.439257050E0,7.247778168E0,2.079176331E0,7.676244097E0
4.891725667E0,-1.152303772E0,7.450606384E0,2.041454773E0,7.810689923E0
4.901679667E0,1.049317932E-1,7.800279236E0,2.356100464E0,8.149023023E0
4.911633667E0,1.373094635E0,8.075706482E0,2.572999420E0,8.586195320E0
4.921587667E0,1.872905273E0,8.447533264E0,3.241060181E0,9.239754516E0
4.931540667E0,1.659000092E0,9.048234100E0,3.380420380E0,9.800513435E0
4.941494667E0,1.075812836E0,9.692644043E0,3.008743286E0,1.020574632E1
4.951448667E0,3.987707520E-1,1.028421387E1,2.927013245E0,1.070006914E1
4.961401667E0,-2.204914856E-1,1.098520615E1,2.850671997E0,1.135119824E1
4.971355667E0,-8.901988220E-1,1.191342590E1,1.781595154E0,1.207875209E1
4.981309667E0,-1.075962524E0,1.166628983E1,7.741900635E-1,1.174135358E1
4.991262667E0,-1.014889526E0,1.068882248E1,-1.441502380E-1,1.073786320E1
5.001216667E0,-9.544152832E-1,1.017509079E1,1.064286804E-1,1.022030861E1
5.011170667E0,-6.798861694E-1,9.616751862E0,1.598376160E0,9.772357337E0
5.021123667E0,-4.981640625E-1,9.064250793E0,2.641856232E0,9.454534057E0
5.031077667E0,-4.784051514E-1,8.710386658E0,3.186274109E0,9.287198173E0
5.041031667E0,-4.215234375E-1,8.644822998E0,3.675606537E0,9.403229769E0
5.050985667E0,-3.095562744E-1,8.940757599E0,4.220024414E0,9.891490160E0
5.060938667E0,-1.728904724E-1,9.614656219E0,4.584067383E0,1.065294227E1
5.070892667E0,-2.167492676E-1,1.014051270E1,4.349804535E0,1.103620304E1
5.080846667E0,-4.564009094E-1,1.078626984E1,3.674708405E0,1.140418347E1
5.090799667E0,-8.490344238E-1,1.148786087E1,2.750081177E0,1.184291997E1
5.100753667E0,-1.277144165E0,1.188288940E1,1.615440674E0,1.206000856E1
5.110707667E0,-1.623823242E0,1.145073807E1,9.921368408E-1,1.160777928E1
5.120660417E0,-1.567390594E0,1.035576508E1,2.015858002E0,1.066593958E1
5.130614417E0,-1.138233032E0,9.333241425E0,2.935096436E0,9.849860964E0
5.140568417E0,-5.490582275E-1,8.987460480E0,3.138224030E0,9.535426622E0
5.150522417E0,8.666976929E-2,9.065448303E0,3.746259613E0,9.809399863E0
5.160475417E0,6.813830566E-1,9.100924530E0,3.862268372E0,9.910006415E0
5.170429417E0,8.896000671E-1,8.670719147E0,3.198847961E0,9.284685621E0
5.180383417E0,4.905299377E-1,8.111631775E0,3.840563507E0,8.988276683E0
5.190336417E0,-8.083190918E-3,8.318202209E0,4.692142639E0,9.550327527E0
5.200290417E0,-2.465373230E-1,8.973389740E0,4.727319489E0,1.014544497E1
5.210244417E0,-2.995271301E-1,9.342372437E0,4.664150848E0,1.044624059E1
5.220197417E0,-1.817221069E-1,9.537416840E0,4.712200928E0,1.063955734E1
5.230151417E0,1.107696533E-2,9.630223846E0,4.455484772E0,1.061096973E1
5.240105417E0,4.266128540E-2,9.691296844E0,4.046086121E0,1.050208872E1
5.250058417E0,-4.116439819E-1,9.814490662E0,3.948938141E0,1.058715213E1
5.260012417E0,-1.120420074E0,1.012090347E1,4.256548462E0,1.103658611E1
5.269966417E0,-1.635498962E0,1.029708710E1,4.227808228E0,1.125074317E1
5.279919417E0,-1.969753876E0,9.968819733E0,3.939956818E0,1.089864932E1
5.289873417E0,-2.299368439E0,9.327253876E0,3.554658051E0,1.024306370E1
5.299827417E0,-2.697091370E0,8.825946350E0,2.756218414E0,9.631633858E0
5.309781417E0,-3.113375702E0,8.466244354E0,1.354383545E0,9.121664131E0
5.319734417E0,-3.149450684E0,7.919132080E0,3.388952637E-1,8.529158371E0
5.329688417E0,-2.805615692E0,7.027885437E0,4.266128540E-1,7.579225004E0
5.339642417E0,-2.272424469E0,6.538403320E0,1.482367401E0,7.078986090E0
5.349595417E0,-1.617087250E0,7.464527435E0,2.562371521E0,8.056046724E0
5.359549417E0,-1.270258484E0,8.675209808E0,2.615061951E0,9.149391829E0
5.369503417E0,-1.506018219E0,9.420959015E0,2.661166077E0,9.904764738E0
5.379456417E0,-2.239942017E0,9.717043304E0,2.359842682E0,1.024729859E1
5.389410417E0,-2.990630951E0,1.031939072E1,1.677711182E0,1.087420862E1
5.399364417E0,-3.204685822E0,1.081321381E1,-5.388793945E-2,1.127823160E1
5.409317417E0,-2.685265961E0,1.156031021E1,-1.152303772E0,1.192389322E1
5.419271417E0,-1.343456268E0,1.221130646E1,-1.487007751E0,1.237465443E1
5.429225417E0,4.794529724E-1,1.190175018E1,-2.282453613E0,1.212811309E1
5.439179417E0,1.049916687E0,1.020323227E1,-8.223898315E-1,1.029002424E1
5.449132417E0,-5.831872559E-1,8.306676178E0,1.790277100E0,8.517397994E0
5.459086417E0,-2.653232574E0,6.797215118E0,3.766766968E0,8.211596060E0
5.469040417E0,-4.181255035E0,6.040239258E0,4.692292328E0,8.716937034E0
5.478993417E0,-4.433031464E0,6.090384979E0,5.004093933E0,9.043534334E0
5.488947417E0,-3.494632874E0,6.564299469E0,4.278103638E0,8.579315659E0
5.498901417E0,-2.033072205E0,7.098388824E0,3.247646484E0,8.066456110E0
5.508854417E0,-3.138972473E-1,7.079078979E0,2.210453339E0,7.422802344E0
5.518808417E0,1.090033264E0,5.888754272E0,2.038610687E0,6.326257419E0
5.528762417E0,1.404529266E0,4.732109528E0,2.040706329E0,5.341352391E0
5.538715417E0,6.201603699E-1,3.712579651E0,2.297572174E0,4.409839503E0
5.548669417E0,-3.264710999E-1,3.297642517E0,3.820954285E0,5.057738743E0
5.558623417E0,-9.809101868E-1,3.706143036E0,4.035009155E0,5.565876380E0
5.568577417E0,-1.638492737E0,4.200265503E0,2.886148224E0,5.353199073E0
5.578530417E0,-1.701960754E0,4.538112946E0,2.724634094E0,5.560105257E0
5.588484417E0,-1.600022736E0,4.740192719E0,2.910846863E0,5.788136939E0
5.598438417E0,-1.253343658E0,4.928800507E0,4.122427368E0,6.546629069E0
5.608391417E0,-7.750881958E-1,5.327720947E0,6.844367065E0,8.708084332E0
5.618345417E0,-9.419911194E-1,6.305337982E0,8.046068115E0,1.026566347E1
5.628299417E0,-2.140848083E0,7.258106689E0,7.805368652E0,1.087139011E1
5.638252417E0,-4.115990753E0,8.217761078E0,7.800578613E0,1.205495764E1
5.648206417E0,-5.476212158E0,9.094038849E0,7.500452728E0,1.299797035E1
5.658160417E0,-4.803511047E0,6.909032593E0,6.888674927E0,1.087484676E1
5.668113417E0,-4.252806244E0,6.663243713E0,1.039228912E1,1.305698476E1
5.678067417E0,-3.159629517E0,1.092802505E1,1.326346848E1,1.747353960E1
5.688021417E0,1.429527283E0,6.572232971E0,1.221430023E1,1.394370556E1
5.697975417E0,1.498384094E0,8.616681519E0,7.103029175E0,1.126700398E1
5.707928417E0,-5.632786560E-1,1.200563416E1,5.979615326E0,1.342416976E1
5.717882417E0,-1.375639343E0,1.160252243E1,7.348069611E0,1.380235622E1
5.727836417E0,-3.694617004E0,1.511257324E1,7.561675415E0,1.729794785E1
5.737789417E0,-5.921087036E0,2.517060745E1,1.026445496E1,2.782045626E1
5.747743417E0,-2.101030884E0,1.272414001E1,1.449465820E1,1.940137073E1
5.757697417E0,-1.682650909E0,3.412753143E0,8.762029266E0,9.552557509E0
5.767650417E0,-1.730102234E0,6.908882904E0,9.428892517E0,1.181651094E1
5.777604417E0,-5.996530151E-1,9.244026947E0,1.019245468E1,1.377308064E1
5.787558417E0,3.375480652E-1,9.269923096E0,9.108408966E0,1.300032795E1
5.797511417E0,2.716850281E-1,8.189619598E0,7.460336151E0,1.108152956E1
5.807465417E0,-6.010002136E-1,8.501870270E0,6.977889404E0,1.101516863E1
5.817419417E0,-1.286873932E0,9.017248535E0,6.357579346E0,1.110790848E1
5.827372417E0,-1.485061798E0,9.080117798E0,5.761518860E0,1.085583011E1
5.837326417E0,-1.097068634E0,8.894803162E0,5.444178772E0,1.048618927E1
5.847280417E0,-6.635700989E-1,8.847052460E0,5.198689270E0,1.028285139E1
5.857234417E0,-5.914201355E-1,9.210796051E0,5.504802704E0,1.074669226E1
5.867187417E0,-8.779243469E-1,9.799521790E0,5.511688385E0,1.127741492E1
5.877141417E0,-1.032103729E0,9.776918793E0,6.107748871E0,1.157402158E1
5.887095417E0,-7.310797119E-1,9.466913452E0,6.939718781E0,1.176080884E1
5.897048417E0,-4.824467468E-1,9.381740570E0,7.107370148E0,1.177983537E1
5.907002417E0,-5.816903687E-1,9.199270020E0,6.271658020E0,1.114892941E1
5.916956417E0,-2.713856506E-1,9.047036591E0,6.104156342E0,1.091710795E1
5.926909417E0,5.562432861E-1,9.272318115E0,6.808292084E0,1.151686289E1
5.936863417E0,7.649093628E-1,8.671467590E0,7.638465729E0,1.158126052E1
5.946817417E0,1.341210938E-1,9.611213379E0,6.525380402E0,1.161783114E1
5.956770417E0,-8.891510010E-1,6.929839325E0,6.064788208E0,9.251752190E0
5.966724417E0,-9.575587463E-1,7.422015839E0,6.020630035E0,9.604750069E0
5.976678417E0,2.439926147E-2,8.149503021E0,8.249195709E0,1.159587102E1
5.986632417E0,5.183720398E-1,7.521708527E0,7.343728638E0,1.052497786E1
5.996585417E0,7.066804504E-1,8.451125793E0,7.445367279E0,1.128514149E1
6.006539417E0,4.339476013E-1,8.592731323E0,8.261170807E0,1.192771081E1
6.016493417E0,6.915618896E-2,8.227191467E0,8.279732208E0,1.167242166E1
6.026446417E0,1.540296936E-1,7.886649628E0,7.646548920E0,1.098602193E1
6.036400417E0,5.513035583E-1,8.372838593E0,7.424560547E0,1.120412696E1
6.046354417E0,7.198530579E-1,8.086035004E0,7.234755249E0,1.087399807E1
6.056307417E0,2.993774414E-1,7.898774414E0,7.220385132E0,1.070580336E1
6.066261417E0,-2.642005920E-1,7.714657288E0,6.943610687E0,1.038265228E1
6.076215417E0,-3.466790771E-1,7.779023438E0,7.089557190E0,1.053067962E1
6.086168417E0,-2.101629639E-1,7.722740479E0,6.380182343E0,1.001956165E1
6.096122417E0,2.426454163E-1,7.747888184E0,6.627019043E0,1.019833464E1
6.106076417E0,6.355783081E-1,7.552245026E0,7.122039642E0,1.040018333E1
6.116029917E0,4.935237122E-1,7.484585724E0,7.130571899E0,1.034928233E1
6.125983917E0,2.490820312E-1,7.628586273E0,7.233857117E0,1.051599064E1
6.135937917E0,2.658471680E-1,7.594606934E0,6.928941193E0,1.028391731E1
6.145890917E0,2.844085693E-2,7.586673431E0,6.523883514E0,1.000597215E1
6.155844917E0,-5.703140259E-2,7.323520660E0,7.167694702E0,1.024758775E1
6.165798917E0,-7.185058594E-2,7.651338959E0,8.153544617E0,1.118161170E1
6.175752917E0,3.158432007E-2,8.281079407E0,7.219936066E0,1.098657137E1
6.185705917E0,8.464897156E-1,9.388626251E0,5.927224274E0,1.113529682E1
6.195659917E0,1.534608765E0,9.958042145E0,6.217470703E0,1.183953417E1
6.205613917E0,1.509910126E0,9.581724701E0,6.039790192E0,1.142665053E1
6.215566917E0,1.294657745E0,9.131461029E0,6.582860870E0,1.133109776E1
6.225520917E0,1.413660278E0,8.778045959E0,5.586083679E0,1.050032652E1
6.235474917E0,6.590794373E-1,8.987460480E0,6.222859497E0,1.095138402E1
6.245427917E0,-7.768844604E-1,8.666677551E0,7.656727753E0,1.159052756E1
6.255381917E0,-1.151705017E0,7.905211029E0,8.389603729E0,1.158465522E1
6.265335917E0,-1.132245483E0,7.905360718E0,8.251141663E0,1.148294590E1
6.275288917E0,-1.097966766E0,8.225844269E0,8.177794189E0,1.165102411E1
6.285242917E0,-1.186881866E0,8.451275482E0,7.897876282E0,1.162794890E1
6.295196917E0,-1.725910950E0,8.314759369E0,7.465275879E0,1.130682696E1
6.305149917E0,-2.244881744E0,7.948022003E0,7.762557678E0,1.133436586E1
6.315103917E0,-2.291734314E0,7.589667206E0,6.850204926E0,1.047761433E1
6.325057917E0,-2.280657349E0,7.639513550E0,5.990991669E0,9.972740165E0
6.335011917E0,-2.383493500E0,7.747139740E0,5.369783478E0,9.722848863E0
6.344964917E0,-2.304308167E0,7.470514984E0,4.520000610E0,9.030439401E0
6.354918917E0,-1.590742035E0,7.359296265E0,3.788022766E0,8.428452895E0
6.364872917E0,-8.996292114E-1,6.978787537E0,3.071462860E0,7.677674928E0
6.374825917E0,-5.704637146E-1,6.992558899E0,3.054847412E0,7.652019440E0
6.384779917E0,-6.825805664E-1,7.172484741E0,3.735781403E0,8.115818892E0
6.394733917E0,-1.119072876E0,7.310348053E0,4.439019012E0,8.625450861E0
6.404686917E0,-1.238823853E0,7.055727539E0,4.915029144E0,8.687662927E0
6.414640917E0,-1.263372803E0,7.454198914E0,5.796246643E0,9.526681869E0
6.424594917E0,-1.121767273E0,7.879314880E0,5.683231659E0,9.779626112E0
6.434547917E0,-1.074914703E0,7.763006744E0,5.159171448E0,9.382790915E0
6.444501917E0,-1.216370544E0,7.546407166E0,4.855902100E0,9.055804968E0
6.454455917E0,-1.287322998E0,7.373816071E0,3.927532654E0,8.453157794E0
6.464408917E0,-9.788145447E-1,7.283853149E0,3.467239838E0,8.126152023E0
6.474362917E0,-5.791456604E-1,7.090006256E0,3.786825256E0,8.058761935E0
6.484316917E0,-4.188290405E-1,6.598727875E0,3.511847076E0,7.486768142E0
6.494270917E0,-3.146456909E-1,6.302194519E0,3.794160004E0,7.362900773E0
6.504223917E0,-4.195774841E-1,6.088888092E0,5.320984955E0,8.097128155E0
6.514177917E0,-8.517288208E-1,5.598507843E0,5.989045715E0,8.242414733E0
6.524131917E0,-1.491648102E0,5.119354248E0,6.096522217E0,8.099406467E0
6.534084917E0,-2.277364197E0,5.464237061E0,6.508764954E0,8.798198427E0
6.544038917E0,-3.195704498E0,6.140530701E0,6.350094910E0,9.393739931E0
6.553992917E0,-4.024530945E0,6.368806000E0,5.998775482E0,9.630360662E0
6.563945917E0,-4.392615509E0,6.250402222E0,5.495372314E0,9.410723448E0
6.573899917E0,-3.496878204E0,6.676566010E0,5.420977020E0,9.283947582E0
6.583853917E0,-2.510579224E0,6.878645782E0,5.525908813E0,9.173573134E0
6.593806917E0,-1.716330872E0,7.536677399E0,5.586832123E0,9.537294744E0
6.603760917E0,-1.404828644E0,7.719297638E0,4.665647736E0,9.128492117E0
6.613714917E0,-1.636995850E0,7.352410583E0,4.100722504E0,8.576340819E0
6.623667917E0,-2.056872711E0,6.953340454E0,4.105662231E0,8.332834522E0
6.633621917E0,-2.235601044E0,6.789131927E0,4.036056976E0,8.208530945E0
6.643575917E0,-2.216590576E0,6.384373627E0,4.065395966E0,7.886757556E0
6.653529917E0,-2.289339294E0,6.064189453E0,4.726271667E0,8.022039142E0
6.663482917E0,-2.527943115E0,5.684279480E0,5.131628723E0,8.064436927E0
6.673436917E0,-2.821632385E0,5.556295624E0,5.357359314E0,8.217988148E0
6.683390917E0,-3.168910217E0,6.140231323E0,5.326673126E0,8.724556107E0
6.693343917E0,-3.834126892E0,6.234984283E0,4.757706299E0,8.729909923E0
6.703297917E0,-4.354145508E0,5.893843689E0,4.141138458E0,8.416947443E0
6.713251917E0,-4.044140167E0,6.310876465E0,3.932921448E0,8.464638360E0
6.723204917E0,-3.491788788E0,6.656956787E0,4.145030365E0,8.584226193E0
6.733158917E0,-3.052003326E0,6.874753876E0,4.217779083E0,8.623608615E0
6.743112917E0,-2.467618561E0,7.166646881E0,4.408332825E0,8.768316097E0
6.753065917E0,-2.131118317E0,7.193441162E0,4.254303131E0,8.624752528E0
6.763019917E0,-1.883533173E0,7.588170319E0,4.654121704E0,9.098839203E0
6.772973917E0,-1.259181519E0,8.311466217E0,4.972659302E0,9.766951894E0
6.782926917E0,-1.268761597E0,8.298592987E0,3.944447479E0,9.275509014E0
6.792880917E0,-2.097138977E0,7.881260834E0,3.501518555E0,8.875409647E0
6.802834917E0,-1.650318146E0,7.698191528E0,4.629572754E0,9.133380900E0
6.812787917E0,-3.915856934E-1,7.607330475E0,5.190606079E0,9.217765878E0
6.822741917E0,8.149053955E-1,7.754773865E0,5.890550537E0,9.772367887E0
6.832695917E0,4.475692749E-1,7.965834961E0,6.230643311E0,1.012303121E1
6.842649917E0,6.093827820E-1,8.149802399E0,4.668342133E0,9.411909731E0
6.852602917E0,1.672771454E0,8.025261383E0,3.232078857E0,8.811885062E0
6.862556917E0,2.080373840E0,8.033344574E0,3.837569733E0,9.142730545E0
6.872510917E0,1.621128845E0,8.152047729E0,6.126310272E0,1.032548393E1
6.882463917E0,1.449435883E0,8.792416077E0,8.286318512E0,1.216842304E1
6.892417917E0,1.560205536E0,9.778116302E0,8.549022217E0,1.308172697E1
6.902371917E0,1.161883850E0,1.001911514E1,8.321345673E0,1.307583405E1
6.912324917E0,4.049079895E-1,9.283844147E0,8.355025635E0,1.249640612E1
6.922278917E0,1.571731567E-2,8.560099182E0,8.533454590E0,1.208699269E1
6.932232917E0,-5.104385376E-2,8.178243256E0,8.058192902E0,1.148132140E1
6.942185917E0,-1.654060364E-1,7.893984375E0,7.144942017E0,1.064859356E1
6.952139917E0,-2.136058044E-1,8.008645935E0,6.379134521E0,1.024096648E1
6.962093917E0,-4.775070190E-1,7.736511841E0,6.046825562E0,9.830855903E0
6.972046917E0,-5.703140259E-1,7.193590851E0,5.804479523E0,9.260938934E0
6.982000917E0,-6.851252747E-1,6.548133087E0,6.039939880E0,8.934669402E0
6.991954917E0,-8.698411560E-1,6.180347900E0,6.092480621E0,8.721905980E0
7.001907917E0,-1.058448944E0,6.367907867E0,6.041287079E0,8.841250723E0
7.011861917E0,-1.000220032E0,6.297853546E0,6.094127197E0,8.820532053E0
7.021815917E0,-1.005010071E0,6.293063507E0,5.842350769E0,8.645562796E0
7.031769917E0,-7.310797119E-1,6.788682861E0,5.855223999E0,8.994684020E0
7.041722917E0,-5.703140259E-2,7.285948792E0,5.560786285E0,9.165732185E0
7.051676917E0,7.309300232E-1,7.621401215E0,5.379962311E0,9.357564301E0
7.061630917E0,1.582359467E0,7.959697723E0,5.198539581E0,9.637710470E0
7.071583917E0,2.234852600E0,8.052953796E0,4.919669495E0,9.697823412E0
7.081537917E0,2.510429535E0,7.958051147E0,4.464615784E0,9.463911908E0
7.091491917E0,2.685864716E0,7.856412506E0,3.574117584E0,9.039436002E0
7.101444917E0,2.860551453E0,7.725883942E0,3.393143921E0,8.909852017E0
7.111398917E0,3.011587372E0,7.874973907E0,4.496798859E0,9.555421106E0
7.121353167E0,3.011886749E0,8.698411560E0,7.148384857E0,1.165475146E1
7.131306167E0,3.152893524E0,9.085057526E0,9.408684540E0,1.345371148E1
7.141260167E0,2.659369812E0,8.645571442E0,9.244026947E0,1.293329763E1
7.151214167E0,1.394350433E0,8.802295532E0,8.541388092E0,1.234422660E1
7.161167167E0,5.622308350E-1,9.028774567E0,7.914641418E0,1.201983454E1
7.171121167E0,5.294490051E-1,8.067922668E0,7.143744507E0,1.078910460E1
7.181075167E0,9.512718201E-1,7.233258362E0,6.915618896E0,1.005239918E1
7.191028167E0,1.491049347E0,7.194788361E0,6.998097382E0,1.014699831E1
7.200982167E0,2.174827423E0,7.604785767E0,6.682254181E0,1.035447545E1
7.210936167E0,2.910846863E0,8.632249146E0,6.427783356E0,1.114922211E1
7.220890167E0,3.099604340E0,9.076525269E0,5.500461731E0,1.105648847E1
7.230843167E0,3.514990540E0,8.624465332E0,6.769822083E0,1.151377661E1
7.240797167E0,2.517015839E0,7.182064819E0,6.458469543E0,9.981445419E0
7.250751167E0,1.160985718E0,6.586603088E0,5.868396606E0,8.897713572E0
7.260704167E0,1.836680603E0,6.014492798E0,7.084168396E0,9.472748340E0
7.270658167E0,2.114802246E0,6.145171051E0,6.094576263E0,8.909510403E0
7.280612167E0,2.091151428E0,6.938371582E0,5.899980927E0,9.344714519E0
7.290565167E0,2.634521484E0,7.880362701E0,6.405330048E0,1.049138088E1
7.300519167E0,2.004481659E0,8.053402863E0,6.518943787E0,1.055328728E1
7.310473167E0,1.042881317E0,7.651039581E0,6.862778778E0,1.033071830E1
7.320426167E0,1.135388947E0,7.693850555E0,6.893015900E0,1.039221404E1
7.330380167E0,1.560205536E0,8.010741577E0,6.918912048E0,1.069941895E1
7.340334167E0,1.954785004E0,8.166866913E0,6.647825775E0,1.071039155E1
7.350287167E0,2.139351196E0,8.148455200E0,5.991141357E0,1.033769416E1
7.360241167E0,2.039808197E0,8.265511780E0,6.097869415E0,1.047203485E1
7.370195167E0,2.503543854E0,8.683592377E0,5.183121643E0,1.041812163E1
7.380148167E0,2.815644836E0,8.838969269E0,5.654341736E0,1.086401464E1
7.390102167E0,1.751358032E0,8.461454315E0,6.660848694E0,1.091010401E1
7.400056167E0,8.158035278E-1,8.002059631E0,7.322173462E0,1.087716498E1
7.410010167E0,4.843927002E-1,7.696095886E0,7.954608307E0,1.107882311E1
7.419963167E0,2.700384521E-1,8.073161774E0,8.552614746E0,1.176418636E1
7.429917167E0,1.893562317E-1,8.344397736E0,8.697513428E0,1.205452484E1
7.439871167E0,4.339476013E-1,8.193062439E0,8.365204468E0,1.171713397E1
7.449824167E0,1.049168243E0,7.610174561E0,7.346273346E0,1.062935760E1
7.459778167E0,1.553918610E0,7.369175720E0,6.675967255E0,1.006419160E1
7.469732167E0,1.648521881E0,7.216044159E0,7.016658783E0,1.019913811E1
7.479685167E0,1.882335663E0,7.203769684E0,7.072941742E0,1.026956621E1
7.489639167E0,2.242187347E0,7.577841797E0,7.495213623E0,1.089170867E1
7.499593167E0,2.201921082E0,8.156239014E0,7.911947021E0,1.157461001E1
7.509546167E0,2.126477966E0,8.738827515E0,7.314988403E0,1.159301817E1
7.519500167E0,1.943708038E0,9.127269745E0,6.569239197E0,1.141227223E1
7.529454167E0,1.572180634E0,8.838370514E0,6.156547394E0,1.088538567E1
7.539407167E0,1.108894043E0,8.030500488E0,5.638025665E0,9.874508468E0
7.549361167E0,8.490344238E-1,7.296427002E0,5.442382507E0,9.142113202E0
7.559315167E0,8.168513489E-1,7.038812714E0,5.384902039E0,8.899960703E0
7.569268167E0,6.273454285E-1,7.136409760E0,5.243146820E0,8.877640177E0
7.579222167E0,-7.529342651E-2,7.233108673E0,4.739294586E0,8.647799914E0
7.589176167E0,-1.438508606E-1,7.321425018E0,5.018913116E0,8.877693746E0
7.599129167E0,-2.411485291E-1,7.182962952E0,5.489534454E0,9.043677233E0
7.609083167E0,-6.158193970E-1,6.851402435E0,5.661377106E0,8.909104309E0
7.619037167E0,-1.025966492E0,6.841373291E0,5.757477264E0,9.000307784E0
7.628991167E0,-1.291214905E0,6.896758118E0,6.385271759E0,9.487054543E0
7.638944167E0,-9.310638428E-1,7.226672058E0,6.968459015E0,1.008221652E1
7.648898167E0,-4.326004028E-1,7.397167511E0,7.158264313E0,1.030271703E1
7.658852167E0,1.068777466E-1,7.448361053E0,6.960525513E0,1.019501940E1
7.668805167E0,3.766168213E-1,7.627538452E0,7.093748474E0,1.042316893E1
7.678759167E0,1.272354126E-1,7.355404358E0,7.391179962E0,1.042821669E1
7.688713167E0,-4.125421143E-1,6.890920258E0,7.455995178E0,1.016104508E1
7.698666167E0,-9.033714294E-1,6.851701813E0,7.939340057E0,1.052592125E1
7.708620167E0,-1.135838013E0,6.983577576E0,7.860154724E0,1.057556221E1
7.718574167E0,-1.857637024E0,6.865173798E0,7.435487823E0,1.028921308E1
7.728527167E0,-2.332599335E0,6.986271973E0,7.160958710E0,1.027269903E1
7.738481167E0,-1.910177765E0,7.226522369E0,6.954987030E0,1.020995834E1
7.748435167E0,-1.452279968E0,7.352709961E0,6.523434448E0,9.936128918E0
7.758388167E0,-5.441184998E-1,7.303162994E0,6.071673889E0,9.513016266E0
7.768342167E0,3.436853027E-1,6.995852051E0,5.829327850E0,9.112690530E0
7.778296167E0,3.935316467E-1,6.553671570E0,5.736820221E0,8.718749019E0
7.788249167E0,1.197509766E-3,6.545738068E0,6.124514008E0,8.964170911E0
7.798203167E0,-5.706134033E-1,6.834337921E0,6.659651184E0,9.559535991E0
7.808157167E0,-9.066645813E-1,7.028035126E0,6.095324707E0,9.347101245E0
7.818110167E0,-9.771679688E-1,7.052584076E0,5.135820007E0,8.778977534E0
7.828064167E0,-9.467811584E-1,6.964866486E0,4.994364166E0,8.622611736E0
7.838018167E0,-1.003662872E0,6.788383484E0,5.240751801E0,8.634521928E0
7.847972167E0,-1.242566071E0,6.714736633E0,5.257217560E0,8.618004117E0
7.857925167E0,-1.706152039E0,6.758595428E0,5.723198547E0,9.019122383E0
7.867879167E0,-2.255359955E0,6.705755310E0,5.748645630E0,9.115960146E0
7.877833167E0,-2.665357361E0,6.560257874E0,5.227878571E0,8.801808199E0
7.887786167E0,-2.787353668E0,6.510710907E0,4.910089417E0,8.617869520E0
7.897740167E0,-2.858306122E0,6.447991333E0,4.638703766E0,8.441805420E0
7.907694167E0,-2.741548920E0,6.363117828E0,4.294419708E0,8.151527440E0
7.917647167E0,-2.653531952E0,6.395151215E0,4.531227264E0,8.274733313E0
7.927601167E0,-2.849324799E0,6.743925934E0,4.934638367E0,8.828920920E0
7.937555167E0,-2.944975891E0,6.887477417E0,5.189857635E0,9.112894735E0
7.947508167E0,-3.021616516E0,6.718179474E0,5.294789429E0,9.071873947E0
7.957462167E0,-3.078647919E0,6.856940918E0,5.063220978E0,9.062666188E0
7.967416167E0,-2.758613434E0,7.591014404E0,5.086871796E0,9.545140776E0
7.977369167E0,-1.785636749E0,8.246800690E0,5.175337830E0,9.898603026E0
7.987323167E0,-8.625064087E-1,8.308023376E0,5.027445374E0,9.748967982E0
7.997277167E0,-4.700225830E-1,8.168513489E0,4.484823761E0,9.330550788E0
8.007230167E0,-4.941224670E-1,7.918683014E0,3.702849884E0,8.755615053E0
8.017184167E0,-5.019062805E-1,7.476951599E0,3.319048004E0,8.195901097E0
8.027138167E0,-2.107617188E-1,6.998396759E0,3.383114777E0,7.776081487E0
8.037091167E0,3.632945251E-1,6.733747101E0,3.907025299E0,7.793598631E0
8.047045167E0,1.156345367E0,6.818919983E0,4.579726410E0,8.295100863E0
8.056999167E0,1.498833160E0,7.180567932E0,5.072801056E0,8.918540644E0
8.066952167E0,1.349294128E0,7.556436310E0,5.798342285E0,9.619828356E0
8.076906167E0,-1.552272034E-1,7.339687042E0,6.557114410E0,9.843315029E0
8.086860167E0,-1.465751953E0,7.355853424E0,7.174281006E0,1.037917705E1
8.096814167E0,-1.956880646E0,7.353308716E0,7.654033356E0,1.079281046E1
8.106767167E0,-2.370769958E0,7.358996887E0,7.868836670E0,1.103149926E1
8.116721167E0,-2.767145691E0,7.374714203E0,7.350764008E0,1.077391462E1
8.126674667E0,-2.854264526E0,7.599995728E0,6.655609589E0,1.049780453E1
8.136627667E0,-2.187700653E0,7.628735962E0,6.282136230E0,1.012170352E1
8.146581667E0,-1.202449493E0,7.564818878E0,6.839127960E0,1.026869226E1
8.156535667E0,-6.551875305E-1,7.658524017E0,6.823859711E0,1.027848832E1
8.166488667E0,-4.158352661E-1,7.747289429E0,6.446344757E0,1.008705969E1
8.176442667E0,-4.363426208E-1,7.790250092E0,6.452481995E0,1.012486618E1
8.186396667E0,-6.691085815E-1,7.728428650E0,6.531667328E0,1.014095626E1
8.196349667E0,-8.918453979E-1,7.459887085E0,6.745123444E0,1.009663280E1
8.206303667E0,-1.069974976E0,7.247628479E0,6.663094025E0,9.903019085E0
8.216257667E0,-1.346899109E0,6.961124268E0,6.239175568E0,9.444506342E0
8.226210667E0,-1.391356659E0,6.799909515E0,5.817352753E0,9.056281567E0
8.236164667E0,-1.068627777E0,6.739135895E0,5.839356995E0,8.980869003E0
8.246118667E0,-5.165757751E-1,6.673871613E0,6.144422607E0,9.086327201E0
8.256071667E0,7.619155884E-2,6.761289825E0,6.303092651E0,9.243907303E0
8.266025667E0,3.951782227E-1,7.044351196E0,6.252198486E0,9.427037473E0
8.275979667E0,3.659889221E-1,7.341183929E0,6.043083344E0,9.515554933E0
8.285932667E0,2.454895020E-2,7.442373505E0,5.824388123E0,9.450556758E0
8.295886667E0,-2.517764282E-1,7.443720703E0,6.025569763E0,9.580180596E0
8.305840667E0,-3.960763550E-1,7.415878601E0,6.399043121E0,9.803054869E0
8.315794667E0,-1.538800049E-1,7.439379730E0,6.847959595E0,1.011249724E1
8.325747667E0,2.674937439E-1,7.600145416E0,7.234006805E0,1.049593339E1
8.335701667E0,6.038442993E-1,7.805967407E0,7.035669250E0,1.052608175E1
8.345655667E0,7.914042664E-1,8.054001617E0,7.051985321E0,1.073423308E1
8.355608667E0,8.803193665E-1,8.251890106E0,6.887178040E0,1.078433465E1
8.365562667E0,7.920030212E-1,8.287366333E0,6.465355225E0,1.054080299E1
8.375516667E0,7.473957825E-1,8.125253448E0,5.899831238E0,1.006907904E1
8.385469667E0,9.292675781E-1,8.098459167E0,5.236560516E0,9.688660648E0
8.395423667E0,1.318458252E0,8.200995941E0,5.034929810E0,9.713144948E0
8.405377667E0,1.714833984E0,8.219407654E0,5.098697205E0,9.823239331E0
8.415330667E0,2.034718781E0,8.550219727E0,5.819448395E0,1.054098276E1
8.425284667E0,2.147135010E0,8.822952576E0,7.259603577E0,1.162568385E1
8.435238667E0,1.455872498E0,8.580007782E0,7.988437958E0,1.181318074E1
8.445191667E0,3.131488037E-1,8.369395752E0,7.942034454E0,1.154212973E1
8.455145667E0,-6.376739502E-2,8.761879578E0,7.742200012E0,1.169257290E1
8.465099667E0,2.908451843E-1,8.814570007E0,6.967111816E0,1.123930080E1
8.475052667E0,9.443861389E-1,8.466244354E0,6.631958771E0,1.079592681E1
8.485006667E0,1.512454834E0,7.778724060E0,7.063661041E0,1.061561939E1
8.494960667E0,1.879341888E0,7.625592499E0,7.865244141E0,1.111501922E1
8.504913667E0,2.265838165E0,8.167016602E0,8.351882172E0,1.189908058E1
8.514867667E0,2.512674866E0,8.483458557E0,7.959697723E0,1.190123489E1
8.524821667E0,1.979034576E0,8.428822174E0,7.386240234E0,1.138060481E1
8.534774667E0,6.911128235E-1,8.058043213E0,6.949598236E0,1.066333030E1
8.544728667E0,-3.399430847E-1,7.806117096E0,6.220614166E0,9.987345294E0
8.554682667E0,-6.737489319E-1,7.611521759E0,5.804329834E0,9.595803558E0
8.564635667E0,-2.962339783E-1,8.268505554E0,5.854325867E0,1.013553501E1
8.574589667E0,-8.472381592E-2,8.329578552E0,5.369484100E0,9.910621398E0
8.584543667E0,-3.218307495E-1,7.216942291E0,5.682932281E0,9.191493371E0
8.594497667E0,1.887574768E-1,7.124734039E0,6.303691406E0,9.514935095E0
8.604450667E0,8.268804932E-1,6.801855469E0,6.258635101E0,9.280058324E0
8.614404667E0,1.189426575E0,6.764582977E0,5.935906219E0,9.077956878E0
8.624358667E0,1.213077393E0,6.936575317E0,6.364465027E0,9.491788502E0
8.634311667E0,1.124761047E0,7.417076111E0,6.173312531E0,9.715343177E0
8.644265667E0,1.387015686E0,7.828271027E0,5.487588501E0,9.660189819E0
8.654219667E0,1.571432190E0,8.033643951E0,5.530249786E0,9.878891485E0
8.664172667E0,1.594334564E0,8.234975281E0,6.544241180E0,1.063878815E1
8.674126667E0,1.809886322E0,8.593779144E0,6.884034576E0,1.115879297E1
8.684080667E0,1.730850677E0,8.923543396E0,7.021299133E0,1.148582223E1
8.694033667E0,1.331780548E0,8.991502075E0,6.958579559E0,1.144738304E1
8.703987667E0,1.389261017E0,8.558452606E0,6.632108459E0,1.091613575E1
8.713941667E0,1.555116119E0,8.220605164E0,6.733747101E0,1.073965015E1
8.723894667E0,1.782642975E0,8.120313721E0,7.078180847E0,1.091869750E1
8.733848667E0,1.743723907E0,8.168812866E0,7.255412292E0,1.106395428E1
8.743802667E0,1.257235565E0,8.353977814E0,6.837780762E0,1.086852485E1
8.753755667E0,4.899311829E-1,8.311765594E0,6.682403870E0,1.067614169E1
8.763709667E0,-3.692820740E-1,8.199349365E0,6.386469269E0,1.039964850E1
8.773663667E0,-1.185834045E0,8.124505005E0,5.989195404E0,1.016288569E1
8.783616667E0,-1.491648102E0,8.297395477E0,5.914201355E0,1.029803687E1
8.793570667E0,-9.732760620E-1,8.518485718E0,5.843398590E0,1.037579743E1
8.803524667E0,-4.340972900E-3,8.228388977E0,5.521867218E0,9.909461215E0
8.813477667E0,9.683363342E-1,7.909102936E0,5.611231384E0,9.745640161E0
8.823431667E0,1.776954803E0,7.738008728E0,5.785618744E0,9.823834877E0
8.833385667E0,2.265239410E0,7.966733093E0,5.347629547E0,9.858868472E0
8.843338667E0,2.079775085E0,8.512797546E0,5.220543823E0,1.020035609E1
8.853292667E0,1.309626617E0,8.476423187E0,4.835843811E0,9.846332175E0
8.863246667E0,4.191284180E-1,8.074359283E0,3.852089539E0,8.955977908E0
8.873200667E0,-3.046165466E-1,7.677235107E0,3.691024475E0,8.523871879E0
8.883153667E0,-6.262976074E-1,7.283703461E0,4.060156860E0,8.362383543E0
8.893107667E0,-6.355783081E-1,7.003935242E0,4.089346161E0,8.135220998E0
8.903061667E0,-4.394860840E-1,6.788682861E0,4.555925903E0,8.187540769E0
8.913014667E0,-1.145118713E-1,6.467001801E0,5.870941315E0,8.735168984E0
8.922968667E0,-8.038284302E-2,6.171516266E0,7.674540710E0,9.848484632E0
8.932922667E0,-3.258723450E-1,6.782246246E0,8.414601746E0,1.081251957E1
8.942875667E0,-1.324445801E0,6.879394226E0,6.834936676E0,9.787572782E0
8.952829667E0,-2.428998871E0,6.715485077E0,6.212830353E0,9.465571104E0
8.962783667E0,-2.809806976E0,6.875652008E0,7.246281281E0,1.037681060E1
8.972736667E0,-2.292482758E0,7.192992096E0,7.150181122E0,1.039806244E1
8.982690667E0,-1.633852386E0,7.827821960E0,7.100334778E0,1.069387789E1
8.992644667E0,-1.118474121E0,8.337661743E0,6.599626007E0,1.069217710E1
9.002597667E0,-9.807604980E-1,8.406518555E0,5.680088196E0,1.019288219E1
9.012551667E0,-5.833369446E-1,8.534203033E0,5.332960052E0,1.008034555E1
9.022505667E0,-1.721420288E-2,8.326734467E0,5.476361847E0,9.966210026E0
9.032458667E0,2.649490356E-2,7.278164978E0,5.737718353E0,9.267890770E0
9.042412667E0,-5.152285767E-1,7.152725830E0,7.166048126E0,1.013800735E1
9.052366667E0,-1.531465302E0,7.674840088E0,7.729626160E0,1.099980349E1
9.062319667E0,-2.714305573E0,7.615563354E0,7.358547821E0,1.093217664E1
9.072273667E0,-3.617677002E0,7.000492401E0,6.606062622E0,1.028273038E1
9.082227667E0,-3.141966248E0,6.940317535E0,6.372847595E0,9.932429001E0
9.092180667E0,-2.007325745E0,7.292834473E0,6.311774597E0,9.851562813E0
9.102134667E0,-1.263223114E0,7.649243317E0,5.640720062E0,9.587720207E0
9.112088667E0,-9.978250122E-1,7.695497131E0,4.844076691E0,9.147754360E0
9.122041167E0,-1.135089569E0,7.581134949E0,3.987557831E0,8.640755343E0
9.131995167E0,-1.251846771E0,7.393724670E0,3.649560699E0,8.339878784E0
9.141949167E0,-1.276545410E0,7.197333069E0,3.835923157E0,8.255027435E0
9.151902167E0,-1.506167908E0,7.050338745E0,3.595373383E0,8.056210520E0
9.161856167E0,-1.605261841E0,7.257507935E0,3.558549957E0,8.240847335E0
9.171810167E0,-1.637145538E0,7.563321991E0,3.863316193E0,8.649236790E0
9.181763167E0,-1.583257599E0,7.503596191E0,3.900888062E0,8.603928643E0
9.191717167E0,-1.462758179E0,7.373965759E0,4.222120056E0,8.622141861E0
9.201671167E0,-1.225800934E0,7.328161011E0,4.448748779E0,8.660017173E0
9.211624167E0,-1.194965057E0,7.129075012E0,5.077291718E0,8.833489865E0
9.221578167E0,-1.482816467E0,7.192093964E0,5.316643982E0,9.065961807E0
9.231532167E0,-1.801354065E0,7.509434052E0,4.722230072E0,9.051846944E0
9.241486167E0,-1.592388611E0,7.813601532E0,4.268224182E0,9.044656326E0
9.251439167E0,-7.967930603E-1,7.932005310E0,4.189188538E0,9.005603146E0
9.261393167E0,7.691006470E-1,8.304430847E0,4.349954224E0,9.406231405E0
9.271347167E0,1.803449707E0,8.239166565E0,4.396507416E0,9.511339232E0
9.281300167E0,1.714384918E0,8.213270416E0,4.353846130E0,9.452666434E0
9.291254167E0,1.725012817E0,8.158334656E0,4.297413483E0,9.380930456E0
9.301208167E0,2.095193024E0,7.986791382E0,4.871469727E0,9.586964466E0
9.311161167E0,2.295476532E0,7.853718109E0,5.763464813E0,1.000837786E1
9.321115167E0,1.856888580E0,7.344776459E0,6.394552460E0,9.913832639E0
9.331069167E0,7.421566772E-1,7.003336487E0,7.501799927E0,1.028953452E1
9.341022167E0,-2.279759216E-1,6.983876953E0,8.402476959E0,1.092831777E1
9.350976167E0,-1.434017944E0,6.999294891E0,9.276060333E0,1.170862211E1
9.360930167E0,-2.957250366E0,7.762258301E0,9.061257019E0,1.229245144E1
9.370883167E0,-3.906127167E0,7.898924103E0,9.104966125E0,1.267088156E1
9.380837167E0,-3.841012573E0,7.534282379E0,9.467512207E0,1.269458845E1
9.390791167E0,-3.110232239E0,7.174879761E0,9.028924255E0,1.194461876E1
9.400744167E0,-2.339485016E0,7.237599335E0,8.337062988E0,1.128550635E1
9.410698167E0,-1.622775421E0,7.144792328E0,7.423063660E0,1.042992481E1
9.420652167E0,-8.828640747E-1,7.441625061E0,7.140451355E0,1.035100372E1
9.430605167E0,-7.873626709E-2,7.770191803E0,6.943610687E0,1.042093131E1
9.440559167E0,4.405339050E-1,8.084687805E0,7.327562256E0,1.092013808E1
9.450513167E0,6.637197876E-1,8.233478394E0,7.662415924E0,1.126691210E1
9.460466167E0,3.101550293E-1,7.922574921E0,7.473508759E0,1.089572038E1
9.470420167E0,-4.272116089E-1,7.467072144E0,7.045698395E0,1.027528793E1
9.480374167E0,-8.792715454E-1,7.319928131E0,6.865922241E0,1.007449029E1
9.490327167E0,-7.798782349E-1,7.711962891E0,7.257957001E0,1.061887572E1
9.500281167E0,-2.448907471E-1,7.620802460E0,7.199129333E0,1.048637520E1
9.510235167E0,-1.932481384E-1,6.616091766E0,6.780300293E0,9.475362113E0
9.520188167E0,5.643264771E-2,6.522236938E0,6.655609589E0,9.318792750E0
9.530142167E0,4.918771362E-1,6.151607666E0,6.475683746E0,8.945317209E0
9.540096167E0,1.004710693E0,5.958808594E0,6.084696808E0,8.575568709E0
9.550049167E0,1.403182068E0,6.309678955E0,5.734724579E0,8.641066741E0
9.560003167E0,1.556313629E0,6.431824951E0,5.642965393E0,8.696754725E0
9.569957167E0,1.371747437E0,6.554719391E0,5.448370056E0,8.633120733E0
9.579910167E0,1.624122620E0,6.664890289E0,4.904401245E0,8.432774658E0
9.589864167E0,2.229912872E0,7.479496307E0,6.463558960E0,1.013375404E1
9.599818167E0,4.023183746E0,9.199270020E0,8.429271240E0,1.310973646E1
9.609772167E0,2.800825653E0,7.312892761E0,7.811206512E0,1.106064971E1
9.619725167E0,8.897497559E-1,7.439679108E0,1.138966507E1,1.363322963E1
9.629679167E0,6.634204102E-1,7.438780975E0,1.302755905E1,1.501642047E1
9.639633167E0,1.131347351E0,7.837851105E0,1.191342590E1,1.430529879E1
9.649586167E0,1.544637909E0,7.700736237E0,1.008437943E1,1.278209503E1
9.659540167E0,1.580114136E0,7.506290588E0,8.403973846E0,1.137839776E1
9.669494167E0,1.281934204E0,7.375762024E0,7.087461548E0,1.030908977E1
9.679447167E0,1.053209839E0,7.083419952E0,5.983507233E0,9.332012001E0
9.689401167E0,9.494755554E-1,6.863527222E0,5.626200256E0,8.925448957E0
9.699355167E0,6.810836792E-1,6.886728973E0,5.638325043E0,8.926456196E0
9.709308167E0,8.631051636E-1,7.107070770E0,5.906567230E0,9.281322207E0
9.719262167E0,1.027762756E0,6.761738892E0,6.360423431E0,9.339828443E0
9.729216167E0,8.913963318E-1,6.467151489E0,6.407126312E0,9.147125417E0
9.739169167E0,9.830058289E-1,6.388564911E0,6.841672668E0,9.412148904E0
9.749123167E0,-1.410067749E-1,4.749174042E0,7.147337036E0,8.582480044E0
9.759077167E0,6.286926270E-2,7.463629303E0,6.514752502E0,9.907154742E0
9.769030167E0,1.951940918E0,8.361312561E0,6.718029785E0,1.090199731E1
9.778984167E0,2.295775909E0,6.150859222E0,5.883664856E0,8.815960999E0
9.788938167E0,1.751657410E0,6.611002350E0,5.414989471E0,8.723288756E0
9.798891167E0,4.673281860E-1,5.220693512E0,6.603517914E0,8.430924339E0
9.808845167E0,1.393601990E-1,5.777385864E0,7.040010223E0,9.108202492E0
9.818799167E0,1.461710358E0,7.627688141E0,7.284302216E0,1.064797081E1
9.828752167E0,2.755020905E0,9.106612701E0,7.002737732E0,1.181350375E1
9.838706167E0,2.915636902E0,9.427245941E0,6.497238922E0,1.181473733E1
9.848660167E0,2.200274506E0,8.235124969E0,5.783672791E0,1.030093987E1
9.858613167E0,8.219407654E-1,7.150330811E0,5.220843201E0,8.891570224E0
9.868567167E0,-2.847079468E-1,6.442303162E0,5.872288513E0,8.721702874E0
9.878521167E0,-6.876699829E-1,6.132447510E0,7.090006256E0,9.399361211E0
9.888474167E0,-5.984555054E-1,6.512207794E0,7.800279236E0,1.017896633E1
9.898428167E0,-1.191522217E-1,7.067103882E0,8.597072296E0,1.112959148E1
9.908382167E0,6.494993591E-1,7.431296539E0,9.313632202E0,1.193271815E1
9.918335167E0,6.328839111E-1,7.727231140E0,8.828790436E0,1.174981633E1
9.928289167E0,-4.284091187E-1,7.854915619E0,7.266489258E0,1.070911294E1
9.938243167E0,-1.931732941E0,8.185128937E0,6.506070557E0,1.063282098E1
9.948196167E0,-3.387006683E0,7.887697449E0,7.027436371E0,1.109380220E1
9.958150167E0,-3.617527313E0,6.625522156E0,7.877668304E0,1.091062352E1
9.968104167E0,-2.493514709E0,5.992488556E0,8.343050537E0,1.057043173E1
9.978057167E0,-5.516029358E-1,4.919819183E0,6.885531464E0,8.480532420E0
9.988011167E0,1.826651459E0,5.158722382E0,5.374723206E0,7.670509872E0
9.997965167E0,2.822829895E0,6.803651733E0,4.913532257E0,8.854425152E0
1.000791917E1,1.900447998E0,7.466174011E0,3.823349304E0,8.600782340E0
1.001787217E1,6.527925110E-1,7.795040131E0,3.884871368E0,8.733900288E0
1.002782617E1,-1.658551025E-1,8.111033020E0,4.569248199E0,9.310982423E0
1.003778017E1,-8.436456299E-1,8.465346222E0,5.741161194E0,1.026327221E1
1.004773317E1,-1.133143616E0,8.511450348E0,6.890171814E0,1.100923563E1
1.005768717E1,-9.154962158E-1,8.232430573E0,7.204967194E0,1.097827849E1
1.006764117E1,-6.572831726E-1,7.819888458E0,7.019652557E0,1.052892201E1
1.007759417E1,-7.521858215E-1,7.604785767E0,6.797514496E0,1.022764652E1
1.008754817E1,-1.190624084E0,7.295678558E0,7.208559723E0,1.032510749E1
1.009750217E1,-2.043849792E0,7.258855133E0,7.449109497E0,1.059988359E1
1.010745517E1,-3.469485168E0,7.155569916E0,6.815028076E0,1.047301847E1
1.011740917E1,-4.783602448E0,6.662195892E0,6.423891449E0,1.041796947E1
1.012736617E1,-5.514831848E0,6.676416321E0,6.037544861E0,1.055650762E1
1.013731917E1,-5.468428345E0,6.652615814E0,5.854325867E0,1.041317133E1
1.014727317E1,-4.474495239E0,6.560407562E0,5.790558472E0,9.828052831E0
1.015722717E1,-3.012036438E0,6.958130493E0,6.036646729E0,9.691699912E0
1.016718017E1,-1.537003784E0,7.455396423E0,6.289620667E0,9.874444014E0
1.017713417E1,-8.738827515E-1,7.704328766E0,5.780529327E0,9.671342828E0
1.018708817E1,-1.484163666E0,8.120613098E0,5.142705688E0,9.725971451E0
1.019704117E1,-2.564018097E0,8.537496185E0,5.350773010E0,1.039681690E1
1.020699517E1,-3.429368591E0,8.818611603E0,6.236032104E0,1.133210377E1
1.021694917E1,-3.842958527E0,8.859326935E0,7.394323425E0,1.216273090E1
1.022690217E1,-3.469634857E0,8.742120667E0,6.670129395E0,1.153055358E1
1.023685617E1,-3.122207336E0,8.740025024E0,5.935457153E0,1.101661780E1
1.024681017E1,-2.889141998E0,8.412206726E0,5.577701111E0,1.049871960E1
1.025676317E1,-2.353256378E0,8.268206177E0,4.732408905E0,9.813090390E0
1.026671717E1,-1.939666443E0,7.991731110E0,4.082759857E0,9.181448692E0
1.027667117E1,-2.093995514E0,7.406298523E0,3.783831482E0,8.576447732E0
1.028662417E1,-2.625390472E0,6.834337921E0,3.908222809E0,8.299099679E0
1.029657817E1,-3.133284302E0,6.495742035E0,3.791315918E0,8.147773407E0
1.030653217E1,-3.388802948E0,6.311475220E0,3.557801514E0,7.998540897E0
1.031648517E1,-3.599265289E0,6.143674164E0,3.187770996E0,7.801366981E0
1.032643917E1,-3.691922607E0,5.941594391E0,2.999761963E0,7.611268507E0
1.033639317E1,-3.328179016E0,5.883964233E0,2.781515808E0,7.309900195E0
1.034634617E1,-2.986140289E0,5.668412476E0,2.422562256E0,6.849579674E0
1.035630017E1,-3.078947296E0,5.313500519E0,2.865042114E0,6.776552998E0
1.036625417E1,-3.003803558E0,5.550308075E0,3.858526154E0,7.397092647E0
1.037620717E1,-2.782863007E0,5.516777802E0,2.826572113E0,6.794753398E0
1.038616117E1,-2.565964050E0,5.225782928E0,2.883753204E0,6.496846255E0
1.039611517E1,-2.354753265E0,5.487887878E0,3.583997040E0,6.964683129E0
1.040606817E1,-2.232008514E0,6.180497589E0,3.966302032E0,7.675412971E0
1.041602217E1,-2.436034241E0,6.671326904E0,3.966751099E0,8.134862000E0
1.042597617E1,-3.044818268E0,7.174131317E0,4.019591217E0,8.769047382E0
1.043592917E1,-3.401825867E0,7.381599884E0,4.862488403E0,9.471231681E0
1.044588317E1,-3.249891815E0,7.597600708E0,5.727090454E0,1.005409859E1
1.045583717E1,-2.114502869E0,7.933202820E0,6.898404694E0,1.072356362E1
1.046579017E1,-1.124162292E0,8.077951813E0,7.699987793E0,1.121636565E1
1.047574417E1,-2.989882507E0,7.810308380E0,7.153923340E0,1.100540474E1
1.048569817E1,-3.606450348E0,8.213270416E0,6.557114410E0,1.111125755E1
1.049565217E1,-2.595003662E0,8.829239502E0,6.220614166E0,1.110790506E1
1.050560517E1,-1.481169891E0,8.941805420E0,6.750063171E0,1.130102213E1
1.051555917E1,-4.812492371E-1,8.342002716E0,6.622079315E0,1.066173272E1
1.052551317E1,-2.406994629E-1,7.605833588E0,6.341862030E0,9.905849525E0
1.053546617E1,-3.700305176E-1,6.977290649E0,6.197711792E0,9.339761177E0
1.054542017E1,-8.111631775E-1,6.374194794E0,7.904761963E0,1.018693313E1
1.055537417E1,-1.090482330E0,6.054609375E0,9.299561462E0,1.115030447E1
1.056532717E1,-8.463400269E-1,5.809568939E0,1.012389725E1,1.170302005E1
1.057528117E1,-1.717528381E0,6.351891174E0,1.142798538E1,1.318693577E1
1.058523517E1,-2.601589966E0,5.911656647E0,1.215562225E1,1.376499571E1
1.059518817E1,-3.017874298E0,6.105054474E0,1.135912857E1,1.324420844E1
1.060514217E1,-3.056493988E0,6.434070282E0,9.633516998E0,1.198098767E1
1.061509617E1,-2.236050110E0,6.247558136E0,7.802374878E0,1.024250733E1
1.062504917E1,-1.321901093E0,6.650370483E0,7.318880310E0,9.977016541E0
1.063500317E1,-1.078507233E0,7.171137543E0,6.329437866E0,9.625496102E0
1.064495717E1,-8.547225952E-1,7.351512451E0,6.126459961E0,9.607746754E0
1.065491017E1,-3.658392334E-1,6.830595703E0,6.114933929E0,9.175145392E0
1.066486417E1,1.580712891E-1,6.399941254E0,6.309678955E0,8.988675269E0
1.067481817E1,4.285588074E-1,6.331533508E0,6.214177551E0,8.881890669E0
1.068477117E1,1.838177490E-1,6.282884674E0,6.372099152E0,8.950534978E0
1.069472517E1,-4.553530884E-1,6.615193634E0,7.040758667E0,9.671629431E0
1.070467917E1,-1.287622375E0,5.479954376E0,7.058122559E0,9.028010046E0
1.071463217E1,-1.840871887E0,5.190456390E0,6.216273193E0,8.304920184E0
1.072458617E1,-1.955683136E0,6.026018829E0,5.788462830E0,8.581602495E0
1.073454017E1,-1.681603088E0,6.764582977E0,7.014114075E0,9.888638332E0
1.074449317E1,-1.011596375E0,7.112160187E0,1.061352905E1,1.281612846E1
1.075444717E1,3.094065857E-1,7.587721252E0,1.146286285E1,1.375014440E1
1.076440117E1,-2.544708252E-1,5.714815979E0,9.603728943E0,1.117834901E1
1.077435417E1,-8.387059021E-1,6.656058655E0,1.075797867E1,1.267835358E1
1.078430817E1,-7.493417358E-1,6.489604797E0,1.036100418E1,1.224854649E1
1.079426217E1,-6.869215393E-1,6.530769196E0,9.364975433E0,1.143790070E1
1.080421517E1,-6.411167908E-1,6.668333130E0,8.129295044E0,1.053390409E1
1.081416917E1,-6.333329773E-1,6.688541107E0,7.207062836E0,9.852890313E0
1.082412317E1,-5.279521179E-1,6.699318695E0,7.265591125E0,9.896889351E0
1.083407617E1,-4.062551880E-1,6.613247681E0,7.977959747E0,1.037053180E1
1.084403017E1,-4.412823486E-1,6.253395996E0,8.090825043E0,1.023528903E1
1.085398417E1,-3.505709839E-1,5.968388672E0,8.233777771E0,1.017544396E1
1.086393717E1,-1.122665405E-1,6.869365082E0,7.905809784E0,1.047390131E1
1.087389117E1,-2.366578674E-1,6.374494171E0,7.649542694E0,9.960205134E0
1.088384517E1,-1.059796143E-1,6.620881805E0,7.185208282E0,9.771106673E0
1.089379817E1,1.713935852E-1,5.441783752E0,7.316485291E0,9.119942060E0
1.090375217E1,5.972579956E-1,6.456224213E0,7.229366455E0,9.710987980E0
1.091370617E1,1.222058716E0,6.990762634E0,7.057224426E0,1.000842677E1
1.092365917E1,1.525328064E0,5.880371704E0,8.289911041E0,1.027754942E1
1.093361317E1,1.135838013E0,6.469696198E0,9.102720795E0,1.122526716E1
1.094356717E1,9.087602234E-1,9.245673523E0,8.939111023E0,1.289247959E1
1.095352017E1,1.075962524E0,1.047671356E1,6.812333679E0,1.254301051E1
1.096347417E1,6.908134460E-1,9.399104462E0,6.523135071E0,1.146174852E1
1.097342817E1,8.861572266E-2,8.440348206E0,5.595214691E0,1.012688294E1
1.098338117E1,-4.221221924E-1,7.660170593E0,4.480782166E0,8.884470129E0
1.099333517E1,-8.285270691E-1,7.256011047E0,4.448898468E0,8.551540855E0
1.100328917E1,-1.074016571E0,6.654262390E0,4.794829102E0,8.271826018E0
1.101324217E1,-1.211730194E0,6.520290985E0,5.385500793E0,8.543190469E0
1.102319617E1,-1.083596649E0,6.703360291E0,5.904172211E0,8.998248184E0
1.103315017E1,-5.584886169E-1,6.527476044E0,6.141578522E0,8.979913127E0
1.104310317E1,-3.977229309E-1,6.140680389E0,5.719905396E0,8.401396129E0
1.105305717E1,-9.156459045E-1,6.374643860E0,6.418203278E0,9.092184835E0
1.106301117E1,-1.678160248E0,6.912475433E0,7.701035614E0,1.048353414E1
1.107296417E1,-2.755469971E0,7.080875244E0,7.432044983E0,1.062857947E1
1.108291817E1,-3.412004700E0,7.035369873E0,7.222929840E0,1.064466631E1
1.109287217E1,-3.308719482E0,7.284751282E0,6.763684845E0,1.047676756E1
1.110282517E1,-3.097359009E0,7.707921295E0,6.201753387E0,1.036664983E1
1.111277917E1,-2.351310425E0,7.532935181E0,6.113287354E0,9.982287083E0
1.112273092E1,-1.001267853E0,6.922953644E0,5.478607178E0,8.885097696E0
1.113268492E1,-2.800675964E-1,6.408323822E0,4.234095154E0,7.685871053E0
1.114263792E1,-7.581733704E-1,6.214776306E0,3.582350464E0,7.213286785E0
1.115259192E1,-1.659149780E0,6.306535492E0,3.766766968E0,7.530849972E0
1.116254592E1,-2.690056000E0,6.080804901E0,4.579127655E0,8.073475064E0
1.117249892E1,-3.289709015E0,6.118975525E0,5.921536102E0,9.128452042E0
1.118245292E1,-3.335663452E0,6.774761810E0,6.253096619E0,9.804349319E0
1.119240592E1,-2.998414764E0,7.341932373E0,6.633455658E0,1.033911002E1
1.120235992E1,-3.111729126E0,7.187453613E0,6.778054962E0,1.035781718E1
1.121231392E1,-3.806135101E0,6.782545624E0,7.023993530E0,1.047979364E1
1.122226792E1,-4.395758972E0,6.831643524E0,7.747588806E0,1.122582658E1
1.123222092E1,-4.183200989E0,7.342231750E0,9.049730988E0,1.238164644E1
1.124217492E1,-3.555256805E0,8.568930817E0,9.553433533E0,1.331670074E1
1.125212892E1,-2.722239075E0,1.006477020E1,7.472910004E0,1.282788247E1
1.126208192E1,-2.432441711E0,1.059811111E1,8.309819641E0,1.368538762E1
1.127203592E1,-1.964814148E0,1.041354492E1,8.456813965E0,1.355802769E1
1.128198992E1,-1.013991394E0,9.507479095E0,4.958887939E0,1.077083594E1
1.129194292E1,-8.575666809E-1,8.230634308E0,4.561165009E0,9.448967560E0
1.130189692E1,-1.002764740E0,7.238347778E0,5.135670319E0,8.931647402E0
1.131185092E1,-1.020428009E0,6.557563477E0,4.804109802E0,8.192825097E0
1.132180392E1,-1.654509430E0,6.298003235E0,4.529580688E0,7.932171671E0
1.133175792E1,-2.247127075E0,6.356381836E0,5.113366699E0,8.461659952E0
1.134171192E1,-2.611170044E0,6.406677246E0,5.007686462E0,8.540529611E0
1.135166492E1,-2.468067627E0,6.482120361E0,4.430786133E0,8.230498645E0
1.136161892E1,-2.027084656E0,6.532116394E0,3.732637939E0,7.791675223E0
1.137157292E1,-1.545386353E0,6.295458527E0,2.738106079E0,7.036919918E0
1.138152592E1,-1.178798676E0,5.901477814E0,2.257156219E0,6.427422571E0
1.139147992E1,-1.048120422E0,5.656886444E0,2.441722412E0,6.249874319E0
1.140143392E1,-6.524931335E-1,5.725144501E0,2.951861572E0,6.474296378E0
1.141138692E1,-4.834945679E-1,5.910758514E0,2.904559937E0,6.603582485E0
1.142134092E1,-9.544152832E-1,6.026018829E0,3.175496521E0,6.878051295E0
1.143129492E1,-1.207239532E0,6.776408386E0,3.929777985E0,7.925925366E0
1.144124792E1,-4.505630493E-1,7.231162720E0,4.844525757E0,8.715626836E0
1.145120192E1,1.782792664E-1,8.043822784E0,5.492228851E0,9.741634680E0
1.146115592E1,5.749543762E-1,8.874595184E0,7.144942017E0,1.140785732E1
1.147110892E1,1.080902252E0,9.089847565E0,9.593699799E0,1.326019435E1
1.148106292E1,9.894424438E-1,9.015003204E0,1.044752426E1,1.383474041E1
1.149101692E1,7.541317749E-1,8.768465881E0,1.022658371E1,1.349213560E1
1.150096992E1,6.792874146E-1,8.404722290E0,8.994046783E0,1.232857111E1
1.151092392E1,5.119354248E-1,8.027955780E0,6.882388000E0,1.058666220E1
1.152087792E1,-2.161505127E-1,7.421566772E0,5.628595276E0,9.317052065E0
1.153083092E1,-5.454656982E-1,7.140151978E0,6.001918945E0,9.343571807E0
1.154078492E1,-1.278341675E-1,7.380402374E0,6.199058990E0,9.639243391E0
1.155073892E1,8.843609619E-1,7.668852539E0,6.559958496E0,1.013047131E1
1.156069192E1,1.673669586E0,8.100854187E0,7.854616241E0,1.140701559E1
1.157064592E1,1.533710632E0,8.530011749E0,9.246122589E0,1.267296933E1
1.158059992E1,-7.951464844E-1,9.834399261E0,1.004426285E1,1.407959101E1
1.159055292E1,-2.748284912E0,6.411317596E0,7.373067627E0,1.014988618E1
1.160050692E1,-3.029400330E0,5.866750031E0,1.002360580E1,1.200286198E1
1.161046092E1,-2.805615692E0,6.029162292E0,9.812095642E0,1.185324843E1
1.162041392E1,-2.557132416E0,5.569617920E0,8.923244019E0,1.082514913E1
1.163036792E1,-1.738185425E0,5.984255676E0,7.895780640E0,1.005862597E1
1.164032192E1,-5.773493958E-1,6.603068848E0,6.187383270E0,9.067390047E0
1.165027492E1,3.131488037E-1,7.238497467E0,5.730533295E0,9.237581913E0
1.166022892E1,6.001020813E-1,7.685767365E0,5.905519409E0,9.711143186E0
1.167018292E1,3.456312561E-1,7.153773651E0,5.600603485E0,9.091902871E0
1.168013592E1,3.899391174E-1,7.284302216E0,4.999004517E0,8.843254912E0
1.169008992E1,8.675958252E-1,7.424410858E0,5.227728882E0,9.121608870E0
1.170004392E1,1.010548553E0,7.218888245E0,5.398823090E0,9.070879043E0
1.170999692E1,8.023315430E-1,7.034322052E0,4.541106720E0,8.411127920E0
1.171995092E1,7.747888184E-1,7.428003387E0,3.371439056E0,8.194030348E0
1.172990492E1,1.115630035E0,7.387886810E0,5.344635773E0,9.186437473E0
1.173985792E1,1.497186584E0,6.967710571E0,9.068442078E0,1.153374180E1
1.174981192E1,1.055006104E0,6.778653717E0,1.084240311E1,1.283046723E1
1.175976592E1,-4.252656555E-1,7.074738007E0,1.311542633E1,1.490795682E1
1.176971892E1,-1.706900482E0,6.793173523E0,1.325418777E1,1.499113769E1
1.177967292E1,-1.866618347E0,6.562353516E0,1.077968353E1,1.275736355E1
1.178962692E1,-1.514101410E0,6.574927368E0,7.925868073E0,1.040872507E1
1.179957992E1,-3.492237854E-1,6.863976288E0,6.411167908E0,9.398893641E0
1.180953392E1,1.209634552E0,7.242389374E0,6.046526184E0,9.511881963E0
1.181948792E1,2.169288940E0,7.693102112E0,6.246210938E0,1.014419961E1
1.182944092E1,2.395169220E0,7.923473053E0,6.868167572E0,1.075592798E1
1.183939492E1,1.910177765E0,7.505691833E0,6.847809906E0,1.033811828E1
1.184934892E1,9.644444275E-1,6.754703522E0,6.759194183E0,9.604315630E0
1.185930192E1,8.202941895E-2,6.573280792E0,7.472011871E0,9.952171150E0
1.186925592E1,-6.818321228E-1,5.798641663E0,8.303832092E0,1.015099835E1
1.187920992E1,-1.802701263E0,4.680017853E0,8.749605103E0,1.008503289E1
1.188916292E1,-2.101479950E0,4.461322632E0,7.925568695E0,9.334573196E0
1.189911692E1,1.667532349E-1,7.293732605E0,6.463409271E0,9.746897012E0
1.190907092E1,2.222428436E0,8.737330627E0,6.747219086E0,1.126077706E1
1.191902392E1,2.543361053E0,8.840765533E0,7.924820251E0,1.214210018E1
1.192897792E1,2.325264587E0,7.985294495E0,7.800578613E0,1.140266681E1
1.193893192E1,1.597927094E0,7.403454437E0,7.100634155E0,1.038188393E1
1.194888492E1,6.738986206E-1,7.912545776E0,1.070558762E1,1.332937081E1
1.195883892E1,6.336323547E-1,8.663983154E0,1.001058289E1,1.325435263E1
1.196879292E1,6.810836792E-1,9.017098846E0,1.022897873E1,1.365298328E1
1.197874592E1,5.272036743E-1,9.110504608E0,1.007839188E1,1.359607373E1
1.198869992E1,-1.505868530E-1,9.192384338E0,9.393715668E0,1.314399103E1
1.199865392E1,-2.477348328E-1,7.397317200E0,9.074729004E0,1.171035357E1
1.200860692E1,1.213975525E-1,5.685027924E0,8.454868011E0,1.018916449E1
1.201856092E1,7.581733704E-1,4.596940613E0,6.710245972E0,8.169093637E0
1.202851492E1,2.739303589E-1,4.714745636E0,3.461551666E0,5.855442271E0
1.203846792E1,-1.977388000E-1,5.381608887E0,3.525019684E0,6.436348236E0
1.204842192E1,-5.370831299E-1,6.159241791E0,3.633244629E0,7.171135493E0
1.205837592E1,-7.273374939E-1,6.644532623E0,3.389401703E0,7.494456452E0
1.206832892E1,-5.357359314E-1,6.338269501E0,3.500770111E0,7.260582940E0
1.207828292E1,2.874023438E-2,6.461463318E0,5.071453857E0,8.214071977E0
1.208823692E1,4.556524658E-1,7.088209991E0,5.483846283E0,8.973455862E0
1.209818992E1,5.763015747E-1,7.871680756E0,5.559289398E0,9.654075825E0
1.210814392E1,3.559597778E-1,8.185128937E0,6.330485687E0,1.035365115E1
1.211809792E1,2.128573608E-1,7.800428925E0,6.115981750E0,9.914496076E0
1.212805096E1,5.957611084E-2,7.053781586E0,5.051096191E0,8.675998888E0
1.213800496E1,-5.584886169E-1,6.192772064E0,4.589456177E0,7.728223817E0
1.214795896E1,-2.045047302E0,5.204527130E0,5.761069794E0,8.028651586E0
1.215791196E1,-3.899391174E0,4.749623108E0,7.720495148E0,9.867634799E0
1.216786596E1,-4.737198944E0,4.732259216E0,7.040010223E0,9.715815718E0
1.217781996E1,-4.447551270E0,5.010380859E0,5.704637146E0,8.799290518E0
1.218777296E1,-3.316054230E0,5.240751801E0,6.697672119E0,9.128006732E0
1.219772696E1,-2.053878937E0,5.500461731E0,7.129374390E0,9.235879878E0
1.220768096E1,-1.112037506E0,6.402186584E0,8.064928894E0,1.035701205E1
1.221763396E1,-4.623884583E-1,7.400760040E0,9.593400421E0,1.212511377E1
1.222758796E1,-3.423381042E-1,7.757468262E0,1.161584473E1,1.397223525E1
1.223754196E1,-7.813751221E-1,7.724985809E0,1.162587387E1,1.398023233E1
1.224749496E1,-2.225272522E0,7.426955566E0,9.473649445E0,1.224179483E1
1.225744896E1,-2.732717285E0,7.545658722E0,7.147935791E0,1.074698541E1
1.226740296E1,-2.601440277E0,7.899522858E0,6.173312531E0,1.035759337E1
1.227735596E1,-2.860252075E0,7.790549469E0,6.826554108E0,1.074595477E1
1.228730996E1,-2.702031097E0,7.423812103E0,6.695875854E0,1.035609539E1
1.229726396E1,-2.553390198E0,7.323520660E0,5.936804352E0,9.767261759E0
1.230721696E1,-2.341131592E0,7.317383423E0,5.354964294E0,9.364861979E0
1.231717096E1,-1.907483368E0,7.451803894E0,4.704117737E0,9.016462597E0
1.232712496E1,-1.782044220E0,7.556286621E0,3.779640198E0,8.634745458E0
1.233707796E1,-1.802701263E0,7.823181610E0,3.410657501E0,8.722642200E0
1.234703196E1,-1.783990173E0,7.698790283E0,3.429518280E0,8.614846975E0
1.235698596E1,-1.772164764E0,7.558082886E0,4.020489349E0,8.742397810E0
1.236693896E1,-2.026336212E0,7.691904602E0,5.368436279E0,9.596433866E0
1.237689296E1,-2.612517242E0,7.472460938E0,5.368585968E0,9.564760013E0
1.238684696E1,-2.817141724E0,7.105124817E0,4.676425323E0,8.960359366E0
1.239679996E1,-2.227368164E0,7.292834473E0,4.568050690E0,8.888964545E0
1.240675396E1,-1.222058716E0,7.527396698E0,3.290607147E0,8.305614002E0
1.241670796E1,-7.367678833E-1,7.678282928E0,3.448528748E0,8.449331699E0
1.242666096E1,-3.562591553E-1,8.123756561E0,5.325026550E0,9.719992233E0
1.243661496E1,4.778063965E-1,8.431067505E0,5.326822815E0,9.984299651E0
1.244656896E1,1.058149567E0,9.178463287E0,4.871020660E0,1.044464988E1
1.245652196E1,1.861079865E0,9.398655396E0,5.905968475E0,1.125516793E1
1.246647596E1,2.187101898E0,9.145831146E0,5.896089020E0,1.109925708E1
1.247642996E1,1.986369324E0,8.486901398E0,6.098019104E0,1.063762170E1
1.248638296E1,1.395398254E0,8.014483795E0,7.284900970E0,1.092011305E1
1.249633696E1,3.891906738E-3,8.793314209E0,8.072862396E0,1.193706401E1
1.250628996E1,-9.481283569E-1,7.108717346E0,5.541925507E0,9.063429153E0
1.251624396E1,-1.046024780E0,5.703739014E0,8.341104584E0,1.015878104E1
1.252619796E1,6.047424316E-2,6.182593231E0,1.125958557E1,1.284548105E1
1.253615096E1,1.022523651E0,6.646478577E0,1.193752579E1,1.370130483E1
1.254610496E1,7.806266785E-1,6.646777954E0,1.130149841E1,1.313441668E1
1.255605896E1,-3.071612549E-1,5.971083069E0,1.078013260E1,1.232718297E1
1.256601196E1,-1.198258209E0,5.629194031E0,8.757538605E0,1.047941461E1
1.257596596E1,-1.083896027E0,5.675447845E0,7.199279022E0,9.231205625E0
1.258591996E1,-9.536668396E-1,6.028713226E0,5.841602325E0,8.448620085E0
1.259587296E1,-1.435514832E0,6.097270660E0,4.916675720E0,7.963109473E0
1.260582696E1,-8.277786255E-1,6.497687988E0,4.602179718E0,8.005324778E0
1.261578096E1,1.149160309E0,7.320377197E0,7.401358795E0,1.047323273E1
1.262573396E1,9.684860229E-1,7.115303650E0,1.139625137E1,1.346996869E1
1.263568796E1,-3.236270142E-1,6.546336823E0,1.297756302E1,1.453878957E1
1.264564196E1,-7.955955505E-1,6.268065491E0,1.178110107E1,1.336846887E1
1.265559496E1,-8.539741516E-1,5.994434509E0,9.944869537E0,1.164315022E1
1.266554896E1,-9.003776550E-1,5.359005890E0,9.353599091E0,1.081755240E1
1.267550296E1,-1.106499023E0,4.720134430E0,1.024768982E1,1.133662894E1
1.268545596E1,-1.663790131E0,3.586691437E0,1.067864365E1,1.138709722E1
1.269540996E1,-1.696272583E0,3.543132019E0,1.054063065E1,1.124882303E1
1.270536396E1,-1.579665070E0,3.437152405E0,9.453142090E0,1.018190816E1
1.271531696E1,-2.098486176E0,3.041076050E0,7.583679657E0,8.435874875E0
1.272527096E1,-2.085463257E0,3.445085907E0,6.873107300E0,7.966013925E0
1.273522496E1,-1.593586121E0,4.082759857E0,7.426356812E0,8.623179244E0
1.274517796E1,-8.683442688E-1,4.744982758E0,7.440427551E0,8.867290752E0
1.275513196E1,-1.007405090E-1,5.101092224E0,7.746091919E0,9.275409993E0
1.276508596E1,8.390052795E-1,5.202730865E0,8.841364288E0,1.029281598E1
1.277503896E1,1.598825226E0,5.151986389E0,8.831933899E0,1.034902228E1
1.278499296E1,2.604434052E0,4.935386810E0,9.275611267E0,1.082488264E1
1.279494696E1,2.367027740E0,4.879253540E0,1.015697845E1,1.151408471E1
1.280489996E1,1.741478577E0,4.432881775E0,1.098026642E1,1.196868577E1
1.281485396E1,1.703607330E0,4.144880676E0,1.135254227E1,1.220502067E1
1.282480796E1,1.757794647E0,4.733606415E0,1.024260040E1,1.141962060E1
1.283476096E1,2.220931549E0,5.769452362E0,8.836873627E0,1.078468604E1
1.284471496E1,2.650687866E0,6.347699890E0,6.459367676E0,9.436253008E0
1.285466896E1,2.327509918E0,6.585704956E0,3.044967957E0,7.619753411E0
1.286462196E1,2.147883453E0,6.890471191E0,4.005520477E0,8.254464905E0
1.287457596E1,2.980452118E0,6.329288177E0,4.561314697E0,8.351561257E0
1.288452996E1,3.202739868E0,5.867049408E0,4.649631042E0,8.142412434E0
1.289448296E1,2.525248718E0,5.444777527E0,5.332660675E0,8.028683160E0
1.290443696E1,8.053253174E-1,4.860243073E0,6.436614990E0,8.105585983E0
1.291439096E1,-1.137783966E0,4.391867065E0,7.164850616E0,8.480455945E0
1.292434396E1,-2.689157867E0,5.009482727E0,8.807085571E0,1.048290244E1
1.293429796E1,-3.668870544E0,4.912035370E0,1.047207321E1,1.213478553E1
1.294425196E1,-3.034789124E0,3.225193176E0,1.247939896E1,1.324187352E1
1.295420496E1,-3.032843170E0,2.833308105E0,1.176224030E1,1.247301364E1
1.296415896E1,-4.506828003E0,3.237467651E0,1.009021729E1,1.151543227E1
1.297411296E1,-4.112847290E0,3.592828674E0,1.153171967E1,1.275948624E1
1.298406596E1,-2.332299957E0,4.568200378E0,1.083476898E1,1.198750586E1
1.299401996E1,-2.105371857E0,4.711901550E0,1.177855637E1,1.285958774E1
1.300397396E1,-1.592388611E0,5.598208466E0,1.248703308E1,1.377685141E1
1.301392696E1,1.124162292E-1,7.189100189E0,1.077070221E1,1.295005116E1
1.302388096E1,-1.761087799E0,5.847589874E0,9.525890808E0,1.131540248E1
1.303383496E1,-4.154760132E0,8.543184357E0,1.104942261E1,1.457181425E1
1.304378796E1,-5.629643097E0,9.372310181E0,1.241638000E1,1.654386811E1
1.305374196E1,-6.391558685E0,8.859776001E0,1.313219147E1,1.708221607E1
1.306369596E1,-6.625222778E0,1.033765274E1,1.356838440E1,1.829922666E1
1.307364896E1,-4.190835114E0,8.671617279E0,1.357167755E1,1.664182913E1
1.308360296E1,2.816243591E0,4.534819794E0,1.008632538E1,1.141182624E1
1.309355696E1,3.969445496E0,6.581363983E0,8.248147888E0,1.127398745E1
1.310350996E1,3.643872528E0,6.034850464E0,7.284900970E0,1.013740644E1
1.311346396E1,2.445165253E0,5.151986389E0,4.307742004E0,7.146918080E0
1.312341767E1,1.583107910E0,5.954018555E0,2.578687592E0,6.678787113E0
1.313337067E1,1.683848419E0,6.374793549E0,2.919977875E0,7.211075445E0
1.314332467E1,1.096769257E0,5.423821106E0,3.522924042E0,6.559857620E0
1.315327867E1,-5.611830139E-1,4.206851807E0,3.284170532E0,5.366405183E0
1.316323167E1,-2.264191589E0,3.471880188E0,3.228785706E0,5.254100563E0
1.317318567E1,-3.110531616E0,3.378324738E0,3.503015442E0,5.775777190E0
1.318313967E1,-3.216511230E0,3.512595520E0,3.619473267E0,5.982044676E0
1.319309267E1,-2.887495422E0,3.706442413E0,3.738775177E0,6.004480411E0
1.320304667E1,-2.572550354E0,4.047882385E0,3.529061279E0,5.954631865E0
1.321300067E1,-2.308948517E0,4.151017914E0,3.687431946E0,6.013264282E0
1.322295367E1,-2.605481873E0,4.416416016E0,3.730991364E0,6.341416464E0
1.323290767E1,-3.454516296E0,4.753215637E0,3.381168823E0,6.779310020E0
1.324286167E1,-3.645968170E0,3.561693420E0,3.736230469E0,6.319664709E0
1.325281467E1,-2.536175995E0,3.088976440E0,4.476141815E0,6.000817417E0
1.326276867E1,-2.068997498E0,5.265899506E0,3.832480316E0,6.833619365E0
1.327272267E1,-1.413660278E0,6.807992706E0,3.441493378E0,7.758290839E0
1.328267567E1,2.600093079E-1,7.639812927E0,4.168681183E0,8.707022982E0
1.329262967E1,1.980082397E0,9.383836212E0,6.112389221E0,1.137270462E1
1.330258367E1,3.981270905E0,7.433691559E0,9.173074493E0,1.246015987E1
1.331253667E1,3.975433044E0,6.127657471E0,1.004141876E1,1.241701835E1
1.332249067E1,2.073338470E0,7.034471741E0,1.021625519E1,1.257594510E1
1.333244467E1,9.545649719E-1,7.024143219E0,1.153291718E1,1.353728041E1
1.334239767E1,-9.839039612E-1,5.142556000E0,6.731052704E0,8.527662031E0
1.335235167E1,-3.624712372E0,5.893095245E0,7.985893250E0,1.056605898E1
1.336230567E1,-4.379143524E0,6.678062897E0,1.145238464E1,1.396175261E1
1.337225867E1,-5.421875153E0,6.350094910E0,1.162557449E1,1.431343487E1
1.338221267E1,-6.566245422E0,6.398144989E0,9.195677490E0,1.298508078E1
1.339216667E1,-6.066285095E0,7.117998047E0,7.806416473E0,1.218219394E1
1.340211967E1,-4.223766632E0,8.196056213E0,7.750732269E0,1.204530584E1
1.341207367E1,-2.604134674E0,9.008267212E0,7.510332184E0,1.201397041E1
1.342202767E1,-2.098935242E0,9.007069702E0,7.170987854E0,1.170281592E1
1.343198067E1,-1.751807098E0,8.886570282E0,7.295528870E0,1.163033538E1
1.344193467E1,-8.643026733E-1,8.313262482E0,9.271719360E0,1.248287355E1
1.345188867E1,3.219804382E-1,7.445067902E0,1.000190094E1,1.247279960E1
1.346184167E1,4.631369019E-1,6.368955688E0,1.047955765E1,1.227188742E1
1.347179567E1,-1.860630798E-1,5.475613403E0,1.103834564E1,1.232323156E1
1.348174967E1,-7.200027466E-2,5.412145386E0,1.016116974E1,1.151285682E1
1.349170267E1,6.391708374E-1,5.791007538E0,1.004995102E1,1.161661840E1
1.350165667E1,1.064286804E-1,5.869444427E0,1.031579819E1,1.186917845E1
1.351161067E1,-9.017248535E-1,5.600902863E0,1.045500870E1,1.189497488E1
1.352156367E1,-1.265318756E0,5.790259094E0,9.843979340E0,1.149052049E1
1.353151767E1,-1.482666779E0,5.589676208E0,1.002510269E1,1.157348110E1
1.354147167E1,-2.118544464E0,5.575605469E0,1.091664871E1,1.243980812E1
1.355142467E1,-2.906655579E0,5.334906006E0,1.327709015E1,1.460106132E1
1.356137867E1,-3.926185455E0,5.176834717E0,1.421024963E1,1.562516383E1
1.357133267E1,-4.264182587E0,5.989345093E0,1.507515106E1,1.677246813E1
1.358128567E1,-3.412902832E0,7.190597076E0,1.549742294E1,1.742190317E1
1.359123967E1,-2.699935455E0,7.605683899E0,1.098236206E1,1.362895284E1
1.360119267E1,-2.409090271E0,8.623267822E0,8.171656952E0,1.212189924E1
1.361114667E1,-1.503623199E0,9.766290894E0,6.922953644E0,1.206518163E1
1.362110067E1,2.040257263E-1,9.432335358E0,6.987918549E0,1.174059549E1
1.363105367E1,2.487377472E0,9.437724152E0,6.808591461E0,1.190019334E1
1.364100767E1,3.988006897E0,9.138646088E0,7.114555206E0,1.224891616E1
1.365096167E1,4.846172333E0,8.430917816E0,8.765621796E0,1.309205434E1
1.366091467E1,3.502566376E0,6.683152313E0,1.202314774E1,1.419466722E1
1.367086867E1,1.751956787E0,5.755082245E0,1.411953827E1,1.534769315E1
1.368082267E1,-7.975415039E-1,6.069129181E0,1.472832230E1,1.594972975E1
1.369077567E1,-4.370760956E0,6.454727325E0,1.438209229E1,1.635883965E1
1.370072967E1,-9.519903259E0,9.492061157E0,9.224268036E0,1.630383096E1
1.371068367E1,-1.054916290E1,1.457578949E1,7.346872101E0,1.943489148E1
1.372063667E1,-8.126600647E0,1.755085281E1,1.026759842E1,2.189743478E1
1.373059067E1,-6.111940155E0,1.749082764E1,1.112471603E1,2.161120475E1
1.374054467E1,-4.656516724E0,1.553843765E1,1.004755600E1,1.908086933E1
1.375049767E1,-2.403402100E0,1.266246826E1,1.106484055E1,1.698661651E1
1.376045167E1,3.014730835E-1,8.879534912E0,1.194770462E1,1.488907895E1
1.377040567E1,1.199156342E0,7.341483307E0,1.167003204E1,1.383925580E1
1.378035867E1,9.286688232E-1,7.198081512E0,1.031714539E1,1.261420993E1
1.379031267E1,3.553610229E-1,6.508615265E0,8.569379883E0,1.076673700E1
1.380026667E1,-9.773176575E-1,6.011349335E0,7.454797668E0,9.626291025E0
1.381021967E1,-1.556313629E0,5.426515503E0,6.079757080E0,8.296543182E0
1.382017367E1,-2.354753265E0,5.621410217E0,4.461771698E0,7.553312019E0
1.383012767E1,-3.312761078E0,6.308331757E0,3.467539215E0,7.924220070E0
1.384008067E1,-3.072660370E0,6.614445190E0,3.973038025E0,8.305248827E0
1.385003467E1,-2.733465729E0,6.415808258E0,3.528163147E0,7.815520820E0
1.385998867E1,-2.021845551E0,6.360124054E0,2.593506775E0,7.159980084E0
1.386994167E1,-1.235231323E0,6.301595764E0,1.996099091E0,6.724605355E0
1.387989567E1,-8.807684326E-1,6.183940430E0,1.693877563E0,6.471946652E0
1.388984967E1,-1.204395447E0,5.976920929E0,1.279539185E0,6.229877423E0
1.389980267E1,-1.803000641E0,5.437592468E0,1.275198212E0,5.868931218E0
1.390975667E1,-1.908381500E0,5.068160706E0,2.754721527E0,6.075908457E0
1.391971067E1,-1.813927917E0,5.543871460E0,3.152294769E0,6.630370093E0
1.392966367E1,-1.847308502E0,6.262377319E0,2.247426453E0,6.905131719E0
1.393961767E1,-2.049238586E0,6.448739777E0,2.203867035E0,7.116365182E0
1.394957167E1,-1.678459625E0,6.151757355E0,1.957479401E0,6.670312652E0
1.395952467E1,-6.384223938E-1,5.713169403E0,1.590292969E0,5.964639093E0
1.396947867E1,9.090596008E-1,5.318739624E0,2.510279846E-1,5.401703027E0
1.397943267E1,2.502945099E0,5.217699738E0,-8.565188599E-1,5.850021306E0
1.398938567E1,3.548820190E0,5.404660950E0,-1.775757294E0,6.705057695E0
1.399933967E1,3.990102539E0,5.602250061E0,-1.862127686E0,7.125562682E0
1.400929367E1,3.913761292E0,5.687872009E0,-6.487509155E-1,6.934716518E0
1.401924667E1,3.014281769E0,5.851930847E0,1.074166260E0,6.669694324E0
1.402920067E1,1.650767212E0,6.361321564E0,2.744093628E0,7.121902433E0
1.403915467E1,2.963836670E-1,7.213050385E0,3.122207336E0,7.865374612E0
1.404910767E1,-9.635462952E-1,8.085885315E0,2.198927307E0,8.434764021E0
1.405906167E1,-2.134860535E0,8.948691101E0,4.051474915E0,1.005242015E1
1.406901567E1,-2.888094177E0,9.535021820E0,6.537654877E0,1.191631908E1
1.407896867E1,-3.397933960E0,9.835147705E0,7.598349152E0,1.288452542E1
1.408892267E1,-3.137325897E0,1.003737717E1,7.014263763E0,1.264087221E1
1.409887667E1,-2.207010498E0,9.217681732E0,6.173462219E0,1.131141846E1
1.410882967E1,-1.520088959E0,8.209228821E0,6.063890076E0,1.031856924E1
1.411878367E1,-1.317560120E0,7.338938599E0,6.588549042E0,9.950123763E0
1.412873754E1,-1.118174744E0,6.364614716E0,6.934180298E0,9.478475175E0
1.413869054E1,-9.024732971E-1,5.313350830E0,7.060367889E0,8.882282918E0
1.414864454E1,-7.406597900E-1,4.687352600E0,7.076234894E0,8.520149740E0
1.415859854E1,-4.137396240E-1,4.560715942E0,7.145091705E0,8.486674606E0
1.416855154E1,3.474275208E-1,4.868775330E0,6.894662476E0,8.447606155E0
1.417850554E1,1.457070007E0,5.065017242E0,7.100334778E0,8.842635729E0
1.418845954E1,2.463427277E0,5.525609436E0,8.560248871E0,1.048230386E1
1.419841254E1,3.181933136E0,5.008434906E0,8.934171295E0,1.072513568E1
1.420836654E1,2.651136932E0,4.068539429E0,8.709638214E0,9.971927494E0
1.421832054E1,1.385818176E0,3.447480927E0,8.920848999E0,9.663703411E0
1.422827354E1,1.694476318E-1,2.833308105E0,9.014254761E0,9.450562746E0
1.423822754E1,-1.000818787E0,2.396815796E0,8.423283691E0,8.814651006E0
1.424818154E1,-1.030756531E0,1.685644684E0,7.719147949E0,7.968004900E0
1.425813454E1,-6.982978821E-1,1.038690033E0,6.835535431E0,6.949175602E0
1.426808854E1,-9.663903809E-1,1.494192810E0,5.581892395E0,5.858672651E0
1.427804254E1,-1.126257935E0,1.549427948E0,6.576723633E0,6.849998368E0
1.428799554E1,-1.063987427E0,1.212029572E0,8.901389465E0,9.046315236E0
1.429794954E1,-1.851499786E0,1.687440948E0,1.149609375E1,1.176586928E1
1.430790254E1,-2.214794312E0,2.217339020E0,1.343665833E1,1.379730746E1
1.431785654E1,-1.945953369E0,1.920805664E0,1.348515747E1,1.375956761E1
1.432781054E1,-8.306227112E-1,1.689835968E0,1.239841736E1,1.254058343E1
1.433776354E1,6.677613831E-1,1.814077606E0,1.062116318E1,1.079564218E1
1.434771754E1,1.960473175E0,2.517165527E0,7.144193573E0,7.824262213E0
1.435767154E1,3.078498230E0,3.904181213E0,3.107837219E0,5.863312586E0
1.436762454E1,4.397255859E0,5.010530548E0,-1.145867157E0,6.764191527E0
1.437757854E1,5.237308960E0,4.738546143E0,-7.203021240E-1,7.099440812E0
1.438753254E1,3.835773468E0,5.620811462E0,7.366631012E0,1.002865555E1
1.439748554E1,2.464325409E0,8.232131195E0,1.097817078E1,1.394134561E1
1.440743954E1,2.655477905E0,8.492589569E0,9.411828003E0,1.295214835E1
1.441739354E1,2.317031708E0,6.474635925E0,7.307803345E0,1.003461688E1
1.442734654E1,1.316063232E0,5.669011230E0,6.035449219E0,8.384292340E0
1.443730054E1,5.530998230E0,1.676573547E1,1.135044662E1,2.098843648E1
1.444725454E1,1.619152954E1,3.518807602E1,9.418414307E0,3.986317663E1
1.445720754E1,8.536598053E0,1.506587036E1,-1.196776291E1,2.104949655E1
1.446716154E1,-2.814447327E0,-6.281537476E0,3.233575745E0,7.604922019E0
1.447711554E1,-7.161407776E0,-1.307186691E1,1.520073990E1,2.128901030E1
1.448706854E1,-4.085753632E0,-8.023614807E0,1.612581619E1,1.846926434E1
1.449702254E1,2.631527710E0,1.378932495E0,1.076755875E1,1.116990216E1
1.450697654E1,3.540737000E0,4.103716278E0,6.837331696E0,8.725045015E0
1.451692954E1,1.893861694E0,5.651198273E0,5.434598694E0,8.065830211E0
1.452688354E1,3.677253113E0,1.001627106E1,3.619772644E0,1.126723703E1
1.453683754E1,2.139650574E0,5.753285980E0,-3.839515686E-1,6.150270153E0
1.454679054E1,-3.102598114E0,-7.459737396E0,5.557942200E-1,8.098314905E0
1.455674454E1,-5.942642212E-1,-8.496182098E0,3.925437012E0,9.378023030E0
1.456669854E1,9.231303406E-1,-3.775149536E0,5.609135742E0,6.823952478E0
1.457665154E1,2.388283539E0,2.478545837E0,6.995253296E0,7.796194995E0
1.458660554E1,1.972298584E0,5.652395782E0,7.268435211E0,9.416458475E0
1.459655954E1,9.279203796E-1,8.620423737E0,7.432643738E0,1.142002340E1
1.460651254E1,6.541397095E-2,9.877359924E0,6.296506348E0,1.171377438E1
1.461646654E1,-7.812254333E-1,8.502019958E0,5.103038177E0,9.946640397E0
1.462642054E1,-2.243983612E0,7.559430084E0,3.413651276E0,8.592639913E0
1.463637354E1,-4.288581848E0,7.054979095E0,1.425934753E0,8.378421941E0
1.464632754E1,-5.560037842E0,6.806346130E0,1.122066650E0,8.859988827E0
1.465628054E1,-5.046605530E0,6.930587769E0,4.605772247E0,9.732132972E0
1.466623454E1,-2.586920471E0,6.547234955E0,1.128937363E1,1.330445038E1
1.467618854E1,6.248007202E-1,7.244634705E0,1.523202484E1,1.687867556E1
1.468614154E1,2.784958649E0,7.576045532E0,1.508083923E1,1.710509201E1
1.469609554E1,2.753973083E0,7.531288605E0,1.312740143E1,1.538289128E1
1.470604954E1,1.945953369E-1,8.294401703E0,9.552236023E0,1.265227964E1
1.471600254E1,-2.790347443E0,8.961414642E0,7.793543243E0,1.219968473E1
1.472595654E1,-4.846471710E0,8.812773743E0,7.219187622E0,1.238022371E1
1.473591054E1,-5.388793945E0,8.246651001E0,7.967331848E0,1.266983542E1
1.474586354E1,-4.169579315E0,7.215445404E0,8.049061890E0,1.158600196E1
1.475581754E1,-1.751358032E0,6.575226746E0,7.039411469E0,9.790514570E0
1.476577154E1,2.305206299E-1,6.978637848E0,5.774990845E0,9.061183434E0
1.477572454E1,1.205443268E0,7.537575531E0,4.134701843E0,8.681238258E0
1.478567854E1,7.840695190E-1,7.944130096E0,2.951562195E0,8.510915779E0
1.479563254E1,-6.216572571E-1,8.701854401E0,4.520898743E0,9.825846182E0
1.480558554E1,-2.445764008E0,1.113294891E1,7.077731781E0,1.341710104E1
1.481553954E1,-4.115541687E0,1.350491638E1,7.628436584E0,1.604722701E1
1.482549354E1,-6.170169067E0,1.544458282E1,6.683451691E0,1.792413600E1
1.483544654E1,-6.746320953E0,1.465916611E1,6.121819611E0,1.725921993E1
1.484540054E1,-6.220464478E0,1.274374924E1,4.509223022E0,1.488053814E1
1.485535454E1,-5.661377106E0,1.214768875E1,3.948189697E0,1.397160458E1
1.486530754E1,-3.664379883E0,1.131302444E1,4.846322021E0,1.284130208E1
1.487526154E1,-1.740430756E0,1.168365372E1,5.465284882E0,1.301561379E1
1.488521554E1,-1.098565521E0,1.121961868E1,6.112089844E0,1.282358498E1
1.489516854E1,-9.033714294E-1,9.150621185E0,5.375321960E0,1.065101095E1
1.490512254E1,-6.994953918E-1,7.509733429E0,5.402864685E0,9.277733386E0
1.491507654E1,-7.454498291E-1,7.703430634E0,5.812113647E0,9.678801787E0
1.492502954E1,-1.413061523E-1,8.831784210E0,5.211562500E0,1.025576733E1
1.493498354E1,6.598278809E-1,9.619595947E0,5.044958954E0,1.088226125E1
1.494493654E1,7.598199463E-1,9.965376892E0,5.861510925E0,1.158634426E1
1.495489054E1,-2.315684509E-1,9.242530060E0,5.831573181E0,1.093093004E1
1.496484454E1,-1.308578796E0,8.009095001E0,5.637726288E0,9.881393571E0
1.497479754E1,-1.784738617E0,7.056176605E0,5.653742981E0,9.216275273E0
1.498475154E1,-2.098186798E0,6.940916290E0,6.004763031E0,9.414663342E0
1.499470554E1,-2.219284973E0,7.734416199E0,5.910908203E0,9.984250373E0
1.500465854E1,-2.057770844E0,8.665330353E0,5.753585358E0,1.060311819E1
1.501461254E1,-1.970053253E0,9.207802277E0,5.701194305E0,1.100764957E1
1.502456654E1,-2.294877777E0,9.620344391E0,5.513035583E0,1.132303191E1
1.503451954E1,-2.758613434E0,1.020353165E1,5.098248138E0,1.173516682E1
1.504447354E1,-3.091521149E0,1.066247726E1,3.989354095E0,1.179664658E1
1.505442754E1,-3.012784882E0,1.076007431E1,2.964884491E0,1.156056279E1
1.506438054E1,-2.610271912E0,1.038465500E1,2.802621918E0,1.106839051E1
1.507433454E1,-2.279759216E0,1.019335281E1,2.653681641E0,1.077700190E1
1.508428854E1,-1.671274567E0,9.683662720E0,2.694396973E0,1.018951703E1
1.509424154E1,-9.562115479E-1,9.014554138E0,2.910547485E0,9.520914531E0
1.510419554E1,-2.924917603E-1,8.671467590E0,3.297492828E0,9.281883459E0
1.511414954E1,2.725831604E-1,8.494685211E0,3.703897705E0,9.271075268E0
1.512410271E1,6.327342224E-1,8.462202759E0,3.853287048E0,9.319712936E0
1.513405671E1,6.661148071E-1,8.529263306E0,4.040847015E0,9.461526625E0
1.514400971E1,3.138972473E-1,8.577912140E0,4.220623169E0,9.565185210E0
1.515396371E1,-1.457968140E-1,8.387059021E0,4.319567413E0,9.435183007E0
1.516391771E1,-5.219645691E-1,8.074808350E0,4.394711151E0,9.208065106E0
1.517387071E1,-8.276289368E-1,7.665260010E0,4.555925903E0,8.955313591E0
1.518382471E1,-1.175655212E0,7.291487274E0,4.603227539E0,8.702738398E0
1.519377871E1,-1.468745728E0,7.049440613E0,4.555476837E0,8.520809596E0
1.520373171E1,-1.646725616E0,6.895410919E0,4.478387146E0,8.385365134E0
1.521368571E1,-1.739532623E0,6.913672943E0,4.058360596E0,8.203361386E0
1.522363971E1,-1.654359741E0,7.107070770E0,4.024081879E0,8.333102427E0
1.523359271E1,-1.731449432E0,7.291187897E0,4.275858307E0,8.627995268E0
1.524354671E1,-2.047442322E0,7.323221283E0,4.176464996E0,8.675508624E0
1.525350071E1,-2.483784943E0,7.414830780E0,4.353397064E0,8.949914476E0
1.526345371E1,-2.960992584E0,7.878865814E0,4.779860229E0,9.679414622E0
1.527340771E1,-3.446283417E0,8.282276917E0,5.003195801E0,1.027156018E1
1.528336171E1,-3.809278564E0,8.383765869E0,5.095404053E0,1.052431831E1
1.529331471E1,-3.857029266E0,8.123906250E0,5.150938568E0,1.036372016E1
1.530326871E1,-3.630101166E0,7.739655304E0,4.871320038E0,9.839189886E0
1.531322271E1,-2.971919861E0,7.743846588E0,4.445904694E0,9.410926425E0
1.532317571E1,-2.000889130E0,8.190368042E0,4.627028046E0,9.617435963E0
1.533312971E1,-1.450483704E0,8.637637939E0,4.764142914E0,9.970443814E0
1.534308371E1,-1.225052490E0,9.081914063E0,4.883594513E0,1.038419048E1
1.535303671E1,-1.300495605E0,9.235195312E0,5.021308136E0,1.059215071E1
1.536299071E1,-1.663490753E0,9.258397064E0,4.593348083E0,1.046823597E1
1.537294471E1,-2.082020416E0,9.319320374E0,3.639232178E0,1.021902892E1
1.538289771E1,-2.515219574E0,8.598269806E0,2.324067078E0,9.255153210E0
1.539285171E1,-2.531236267E0,7.898175659E0,8.304730225E-1,8.335347697E0
1.540280471E1,-2.114652557E0,7.421417084E0,1.769320679E-1,7.718840063E0
1.541275871E1,-1.814227295E0,7.239245911E0,1.394649811E0,7.592308616E0
1.542271271E1,-1.930834808E0,7.272327118E0,3.443589020E0,8.274851667E0
1.543266571E1,-2.261197815E0,7.725734253E0,5.411696320E0,9.699816615E0
1.544261971E1,-2.315385132E0,8.026009827E0,6.616989899E0,1.065656593E1
1.545257371E1,-2.099533997E0,8.350085907E0,7.291786652E0,1.128282457E1
1.546252671E1,-1.952240295E0,8.596473541E0,7.771838379E0,1.175210923E1
1.547248071E1,-2.033221893E0,8.645870819E0,7.895032196E0,1.188345938E1
1.548243471E1,-2.161056061E0,8.630752258E0,7.303013306E0,1.151060603E1
1.549238771E1,-2.203268280E0,8.363258514E0,6.071973267E0,1.056727701E1
1.550234171E1,-2.160606995E0,7.737559662E0,4.746779022E0,9.331128720E0
1.551229571E1,-1.950144653E0,7.300468597E0,4.177063751E0,8.634104904E0
1.552224871E1,-1.708097992E0,7.257208557E0,4.246070251E0,8.579847748E0
1.553220271E1,-1.537452850E0,7.531737671E0,4.527035980E0,8.921036284E0
1.554215671E1,-1.461410980E0,7.988288269E0,4.637356567E0,9.351660144E0
1.555210971E1,-1.545685730E0,8.373736725E0,4.406237183E0,9.587676320E0
1.556206371E1,-1.734592896E0,8.620723114E0,4.112098846E0,9.707473227E0
1.557201771E1,-2.013612671E0,8.599766693E0,3.893104248E0,9.652299407E0
1.558197071E1,-2.202370148E0,8.220006409E0,3.937412109E0,9.376681382E0
1.559192471E1,-2.341730347E0,7.602390747E0,3.887565765E0,8.853994221E0
1.560187771E1,-2.546953583E0,6.814429321E0,3.649860077E0,8.139096885E0
1.561183171E1,-2.471061401E0,6.354585571E0,3.902534637E0,7.855996361E0
1.562178571E1,-2.142494659E0,6.570137329E0,4.700974274E0,8.357998984E0
1.563173871E1,-1.721719666E0,6.984176331E0,5.430557098E0,9.012989960E0
1.564169271E1,-1.531614990E0,7.598049774E0,5.749543762E0,9.650567772E0
1.565164671E1,-1.642684021E0,8.123756561E0,5.584137726E0,9.993819370E0
1.566159971E1,-1.768871613E0,8.405470734E0,5.113067322E0,9.996214407E0
1.567155371E1,-1.930236053E0,8.235424347E0,4.785249023E0,9.718365789E0
1.568150771E1,-2.084864502E0,7.942184143E0,4.712200928E0,9.467300911E0
1.569146071E1,-2.057022400E0,7.828570404E0,4.978347473E0,9.502725887E0
1.570141471E1,-1.892065430E0,8.005053406E0,5.102439423E0,9.679652870E0
1.571136871E1,-1.612297211E0,8.448431396E0,4.927453308E0,9.912380716E0
1.572132171E1,-1.449286194E0,9.329199829E0,5.838159485E0,1.110038315E1
1.573127571E1,-1.593885498E0,1.002600082E1,6.617139587E0,1.211807327E1
1.574122971E1,-1.725761261E0,1.025966492E1,6.856192474E0,1.245978938E1
1.575118271E1,-1.776954803E0,9.982291718E0,6.429579620E0,1.200596562E1
1.576113671E1,-1.660047913E0,9.502090302E0,5.800886993E0,1.125592151E1
1.577109071E1,-1.370849304E0,9.235045624E0,5.392087097E0,1.078146088E1
1.578104371E1,-1.219364319E0,9.174421692E0,5.263205109E0,1.064698036E1
1.579099771E1,-1.353635101E0,9.184450836E0,5.081932068E0,1.058359574E1
1.580095071E1,-1.645079041E0,9.203910370E0,4.486470337E0,1.037047093E1
1.581090471E1,-1.691033478E0,9.172176361E0,3.963757324E0,1.013409027E1
1.582085871E1,-1.474134521E0,8.984317017E0,3.849245453E0,9.884721311E0
1.583081171E1,-1.126257935E0,8.696465607E0,3.999383240E0,9.638051529E0
1.584076571E1,-8.333171082E-1,8.375383301E0,4.297862549E0,9.450560054E0
1.585071971E1,-5.740562439E-1,8.016280060E0,4.350552979E0,9.138796299E0
1.586067271E1,-3.607498169E-1,7.673941956E0,4.344266052E0,8.825654259E0
1.587062671E1,-3.155438232E-1,7.432044983E0,4.363575897E0,8.624132139E0
1.588058071E1,-5.852828979E-1,7.339537354E0,4.518653412E0,8.638842127E0
1.589053371E1,-1.101409607E0,7.466323700E0,4.846771088E0,8.969408157E0
1.590048771E1,-1.639390869E0,7.736511841E0,5.213658142E0,9.472246255E0
1.591044171E1,-2.212399292E0,8.043822784E0,5.507946167E0,9.996762806E0
1.592039471E1,-2.648891602E0,8.034242706E0,5.355413361E0,1.001229918E1
1.593034871E1,-2.593506775E0,7.809559937E0,5.307662659E0,9.792179874E0
1.594030271E1,-2.171234894E0,7.733218689E0,5.380112000E0,9.667602463E0
1.595025571E1,-1.678010559E0,7.761809235E0,5.560187531E0,9.694178016E0
1.596020971E1,-1.172960815E0,8.046816559E0,5.890999603E0,1.004146255E1
1.597016271E1,-8.256829834E-1,8.502618713E0,5.949228516E0,1.041007192E1
1.598011671E1,-6.105802917E-1,9.018745422E0,5.826783142E0,1.075462594E1
1.599007071E1,-5.520520020E-1,9.491462402E0,5.817502441E0,1.114611836E1
1.600002371E1,-5.725593567E-1,9.697733459E0,5.842051392E0,1.133593503E1
1.600997771E1,-4.834945679E-1,9.848619690E0,5.979914703E0,1.153206212E1
1.601993171E1,-3.677851868E-1,1.000788849E1,6.052663422E0,1.170161666E1
1.602988471E1,-3.628454590E-1,1.007869125E1,5.883515167E0,1.167593358E1
1.603983871E1,-5.689668274E-1,9.941277008E0,5.539380798E0,1.139462380E1
1.604979271E1,-7.834707642E-1,9.753866730E0,5.246589661E0,1.110308271E1
1.605974571E1,-1.027014313E0,9.673783264E0,4.962031403E0,1.092055844E1
1.606969971E1,-1.364412689E0,9.764794006E0,5.003345490E0,1.105650442E1
1.607965371E1,-1.666185150E0,9.737999725E0,5.116210785E0,1.112566512E1
1.608960671E1,-1.997146912E0,9.430389404E0,4.501738586E0,1.063891397E1
1.609956071E1,-2.196981354E0,9.039103088E0,4.479884033E0,1.032479892E1
1.610951471E1,-2.162702637E0,8.842561798E0,4.828958130E0,1.030470856E1
1.611946771E1,-2.072590027E0,8.828940125E0,4.912035370E0,1.031377257E1
1.612942171E1,-1.885030060E0,8.613837433E0,4.819527740E0,1.004884975E1
1.613937571E1,-1.623374176E0,8.332722015E0,4.746030579E0,9.725965564E0
1.614932871E1,-1.525777130E0,7.977959747E0,4.872367859E0,9.471842806E0
1.615928271E1,-1.587448883E0,7.679181061E0,5.118905182E0,9.364454388E0
1.616923571E1,-1.609303436E0,7.646249542E0,5.407954102E0,9.502681578E0
1.617918971E1,-1.649270325E0,7.905510406E0,5.761369171E0,9.920209782E0
1.618914371E1,-1.717827759E0,8.360264740E0,6.140081635E0,1.051406492E1
1.619909671E1,-1.914518738E0,8.855884094E0,6.296206970E0,1.103332621E1
1.620905071E1,-2.167792053E0,9.273365936E0,6.214776306E0,1.137181088E1
1.621900471E1,-2.349663849E0,9.403894501E0,5.831573181E0,1.131200238E1
1.622895771E1,-2.406096497E0,9.319470062E0,5.350024567E0,1.101202004E1
1.623891171E1,-2.238445129E0,9.163793793E0,4.824916534E0,1.059554495E1
1.624886571E1,-1.934726715E0,9.198222198E0,4.451592865E0,1.040034317E1
1.625881871E1,-1.612446899E0,9.373657379E0,4.428241425E0,1.049165191E1
1.626877271E1,-1.347946930E0,9.576485596E0,4.719535675E0,1.076104336E1
1.627872671E1,-1.191671906E0,9.690398712E0,5.008285217E0,1.097300460E1
1.628867971E1,-1.170416107E0,9.874066772E0,5.079537048E0,1.116551679E1
1.629863371E1,-1.347497864E0,1.020353165E1,5.114863586E0,1.149302563E1
1.630858771E1,-1.587448883E0,1.058389069E1,5.050796814E0,1.183424203E1
1.631854071E1,-1.823957062E0,1.062745010E1,4.837490387E0,1.181824134E1
1.632849471E1,-2.016307068E0,1.028586044E1,4.630620575E0,1.145892954E1
1.633844771E1,-2.133663025E0,9.845476227E0,4.369413757E0,1.098078761E1
1.634840171E1,-2.264790344E0,9.274563446E0,4.015100555E0,1.035701863E1
1.635835571E1,-2.438429260E0,8.819509735E0,3.719764709E0,9.877567449E0
1.636830871E1,-2.467917938E0,8.466244354E0,3.337908783E0,9.429185938E0
1.637826271E1,-2.495011597E0,8.148754578E0,3.053949280E0,9.052838794E0
1.638821671E1,-2.454445953E0,7.943531342E0,3.070864105E0,8.863080811E0
1.639816971E1,-2.321372681E0,7.711214447E0,3.144510956E0,8.645203787E0
1.640812371E1,-2.231559448E0,7.505841522E0,3.321443024E0,8.505850827E0
1.641807771E1,-2.178869019E0,7.375462646E0,3.490291901E0,8.445534737E0
1.642803071E1,-2.118245087E0,7.280260620E0,3.743565216E0,8.455970522E0
1.643798471E1,-1.939367065E0,7.383096771E0,4.337080994E0,8.779608994E0
1.644793871E1,-1.655257874E0,7.397317200E0,4.497247925E0,8.813933247E0
1.645789171E1,-1.497785339E0,7.463479614E0,4.098477173E0,8.645484602E0
1.646784571E1,-1.329086151E0,7.894134064E0,3.960763550E0,8.931487587E0
1.647779971E1,-1.206491089E0,8.517437897E0,4.052971802E0,9.509413731E0
1.648775271E1,-1.148411865E0,9.041647797E0,3.969894562E0,9.941343346E0
1.649770671E1,-1.150956573E0,9.405391388E0,3.837270355E0,1.022304905E1
1.650765971E1,-1.124012604E0,9.606423340E0,3.835623779E0,1.040474812E1
1.651761371E1,-1.001567230E0,9.860145721E0,3.841761017E0,1.062942794E1
1.652756771E1,-9.145980835E-1,1.012255005E1,3.695365448E0,1.081472306E1
1.653752071E1,-8.888516235E-1,1.024439667E1,3.310216370E0,1.080255769E1
1.654747471E1,-9.255253601E-1,1.019200562E1,2.872975616E0,1.062956088E1
1.655742871E1,-1.230590973E0,1.011925690E1,2.719544678E0,1.055033827E1
1.656738171E1,-1.771715698E0,9.917476501E0,2.926414490E0,1.049091123E1
1.657733571E1,-2.212548981E0,9.642049255E0,3.414399719E0,1.046530517E1
1.658728971E1,-2.349663849E0,9.460027771E0,4.091142426E0,1.057121053E1
1.659724271E1,-2.455493774E0,9.335337067E0,4.527934113E0,1.066208962E1
1.660719671E1,-2.520458679E0,9.284592590E0,4.553231506E0,1.064369713E1
1.661715071E1,-2.403851166E0,9.362131348E0,4.466112671E0,1.064773057E1
1.662710371E1,-2.058668976E0,9.542655945E0,4.232897644E0,1.064038641E1
1.663705771E1,-1.635049896E0,9.635912018E0,3.978726196E0,1.055246183E1
1.664701171E1,-1.308429108E0,9.567803650E0,3.801644440E0,1.037821535E1
1.665696471E1,-1.159339142E0,9.414971466E0,3.681594086E0,1.017545527E1
1.666691871E1,-1.175655212E0,9.186995544E0,3.763024750E0,9.997169979E0
1.667687171E1,-1.358874207E0,8.977581024E0,3.906127167E0,9.884398292E0
1.668682571E1,-1.592538300E0,8.822503510E0,4.197720795E0,9.899172000E0
1.669677971E1,-1.740730133E0,8.762029266E0,4.422553253E0,9.968062778E0
1.670673271E1,-1.707648926E0,8.767118683E0,4.522545319E0,1.001158584E1
1.671668671E1,-1.587299194E0,8.858129425E0,4.695435791E0,1.015052180E1
1.672664071E1,-1.431323547E0,8.960217133E0,4.861739960E0,1.029420680E1
1.673659371E1,-1.283730469E0,9.158704376E0,4.972509613E0,1.050027055E1
