"Time (s)","Acceleration x (m/s^2)","Acceleration y (m/s^2)","Acceleration z (m/s^2)","Absolute acceleration (m/s^2)"
4.217250040E-3,-3.323987732E0,7.776478729E0,6.660549316E0,1.076500966E1
1.416925003E-2,-2.817141724E0,8.354875946E0,6.219117279E0,1.078970154E1
2.412125003E-2,-2.268831940E0,8.204588470E0,5.868097229E0,1.033912160E1
3.407325002E-2,-2.163600769E0,8.000413055E0,5.566175079E0,9.983490490E0
4.402525001E-2,-2.101030884E0,8.067174225E0,5.733976135E0,1.011791051E1
5.397725001E-2,-1.821112976E0,7.759414215E0,5.950575714E0,9.946572915E0
6.392925000E-2,-1.361119537E0,7.454049225E0,6.455326080E0,9.954231816E0
7.388124999E-2,-5.836363220E-1,7.462282104E0,7.269183655E0,1.043395019E1
8.383324998E-2,8.158035278E-2,7.415728912E0,7.502698059E0,1.054941557E1
9.378524998E-2,3.929328918E-1,7.294630737E0,7.387437744E0,1.038943070E1
1.037362500E-1,6.262976074E-1,7.379953308E0,7.177574158E0,1.031375442E1
1.136882500E-1,5.605842590E-1,7.412585449E0,6.864874420E0,1.011865498E1
1.236402499E-1,1.601669312E-1,7.076234894E0,6.700516205E0,9.746572276E0
1.335922499E-1,-1.062789917E-2,6.932084656E0,6.484814758E0,9.492456641E0
1.435442501E-1,-3.921844482E-2,6.901847534E0,6.234235840E0,9.300684597E0
1.534962500E-1,-1.454974365E-1,6.787784729E0,6.044729919E0,9.090321822E0
1.634482500E-1,-3.330574036E-1,6.621031494E0,5.818849640E0,8.820884106E0
1.734002500E-1,-9.134005737E-1,6.224655762E0,5.636828156E0,8.447157606E0
1.833522500E-1,-2.677482147E0,4.607718201E0,6.295458527E0,8.248198332E0
1.933042500E-1,1.543290710E-1,6.404880981E0,5.947282562E0,8.741652460E0
2.032562500E-1,-2.427951050E-1,5.886359253E0,6.631210327E0,8.870238166E0
2.132082500E-1,3.435356140E-1,5.153782654E0,6.046975250E0,7.952697784E0
2.231602500E-1,5.598358154E-1,4.470902710E0,5.703589325E0,7.268653133E0
2.331122500E-1,4.056564331E-1,3.492836609E0,7.294630737E0,8.097907280E0
2.430642500E-1,5.090913391E-1,3.922592926E0,8.038284302E0,8.958790307E0
2.530162500E-1,-6.325845337E-1,4.781357117E0,7.812254333E0,9.181114139E0
2.629682500E-1,-1.586251373E0,5.092110901E0,7.350314941E0,9.081460047E0
2.729202500E-1,-2.766996002E0,5.743406525E0,6.528673553E0,9.125051438E0
2.828722500E-1,-3.230282593E0,5.565127258E0,6.741680603E0,9.319636494E0
2.928232501E-1,-2.563569031E0,4.741390228E0,7.371720428E0,9.132082432E0
3.027752500E-1,-1.404678955E0,4.606371002E0,7.046596527E0,8.535004358E0
3.127272500E-1,-2.183958435E-1,5.172493744E0,8.459658051E0,9.918074541E0
3.226792500E-1,1.220711517E0,7.154821472E0,1.030127838E1,1.260150559E1
3.326312500E-1,2.474803619E0,8.748706970E0,1.001836670E1,1.352893928E1
3.425832500E-1,3.068918152E0,1.013377670E1,9.426946564E0,1.417670661E1
3.525352500E-1,3.002606049E0,1.164368683E1,9.103618927E0,1.508200794E1
3.624872500E-1,2.582729187E0,1.261307098E1,8.957073669E0,1.568404343E1
3.724392500E-1,2.066452789E0,1.231848358E1,8.483159180E0,1.509898190E1
3.823912500E-1,1.413211212E0,1.138936569E1,8.027955780E0,1.400581632E1
3.923432500E-1,4.740641785E-1,1.050455566E1,7.580985260E0,1.296309238E1
4.022952500E-1,-3.851490784E-1,9.687854004E0,7.208410034E0,1.208155744E1
4.122472500E-1,-1.024768982E0,8.812174988E0,6.919211426E0,1.125078069E1
4.221992500E-1,-1.619482269E0,7.948920135E0,6.803801422E0,1.058771779E1
4.321512500E-1,-2.414628754E0,7.160060577E0,6.668782196E0,1.007817223E1
4.421032500E-1,-3.367846527E0,6.506519623E0,6.330335999E0,9.682476010E0
4.520552499E-1,-4.130959625E0,5.999224548E0,5.911806335E0,9.381096778E0
4.620072501E-1,-4.554129639E0,5.595663757E0,5.547164612E0,9.100691451E0
4.719582500E-1,-4.731810150E0,5.425617371E0,5.371729431E0,8.982362063E0
4.819102500E-1,-4.816683655E0,5.425168304E0,5.229076080E0,8.942937393E0
4.918622500E-1,-4.859943695E0,5.499114532E0,5.026696930E0,8.895335597E0
5.018142500E-1,-4.887935486E0,5.766907654E0,4.986430664E0,9.056137586E0
5.117662500E-1,-4.894372101E0,6.158193970E0,5.238356781E0,9.450852501E0
5.217182500E-1,-4.876259766E0,6.600224762E0,5.577401733E0,9.922110980E0
5.316702500E-1,-4.777465210E0,6.937174072E0,5.889203339E0,1.027770762E1
5.416222500E-1,-4.594844971E0,7.210805054E0,6.167474670E0,1.054258287E1
5.515742500E-1,-4.363276520E0,7.468569031E0,6.305337982E0,1.070397087E1
5.615262500E-1,-4.018842773E0,7.690707092E0,6.266119537E0,1.070337923E1
5.714782500E-1,-3.713777161E0,7.965086517E0,6.084098053E0,1.068882562E1
5.814288750E-1,-3.405418396E0,8.224946136E0,6.022276611E0,1.074776391E1
5.913808750E-1,-3.167113953E0,8.350235596E0,6.080206146E0,1.080397853E1
6.013328750E-1,-3.017275543E0,8.297545166E0,6.215075684E0,1.079723915E1
6.112848750E-1,-3.036884766E0,8.153843994E0,6.253994751E0,1.071542306E1
6.212368750E-1,-3.018323364E0,7.830216980E0,6.224805450E0,1.044848203E1
6.311888749E-1,-2.956801300E0,7.398365021E0,6.212081909E0,1.010289268E1
6.411408749E-1,-2.815046082E0,7.015012207E0,6.239624634E0,9.801418075E0
6.510928751E-1,-2.602188721E0,6.765032043E0,6.301446075E0,9.604439980E0
6.610438750E-1,-2.393073578E0,6.557713165E0,6.251899109E0,9.371053600E0
6.709958750E-1,-2.330803070E0,6.554719391E0,6.214626617E0,9.328374630E0
6.809478750E-1,-2.421963501E0,6.720424805E0,6.211183777E0,9.466193568E0
6.908998750E-1,-2.583627319E0,6.885232086E0,6.138884125E0,9.579532833E0
7.008518750E-1,-2.715802460E0,7.071594543E0,6.187083893E0,9.780748411E0
7.108038750E-1,-2.771935730E0,7.252867584E0,6.317462769E0,1.000989769E1
7.207558750E-1,-2.764151917E0,7.376660156E0,6.406677246E0,1.015387434E1
7.307078750E-1,-2.808160400E0,7.497309265E0,6.366710358E0,1.022890081E1
7.406598750E-1,-2.931653595E0,7.678282928E0,6.141129456E0,1.025982907E1
7.506118750E-1,-3.106939087E0,7.909851379E0,5.821094971E0,1.030067794E1
7.605638750E-1,-3.237916718E0,8.089178467E0,5.530549164E0,1.032016894E1
7.705158750E-1,-3.347937927E0,8.182584229E0,5.319637756E0,1.031803852E1
7.804678750E-1,-3.426674194E0,8.216114502E0,5.206173706E0,1.031265621E1
7.904198749E-1,-3.517684937E0,8.181835785E0,5.124144287E0,1.027489167E1
8.003718751E-1,-3.620820465E0,8.086783447E0,5.093907166E0,1.022028853E1
8.103238750E-1,-3.722459106E0,7.965984650E0,5.060825958E0,1.014522413E1
8.202758750E-1,-3.814817047E0,7.832911377E0,5.004243622E0,1.004737697E1
8.302278750E-1,-3.816763000E0,7.658074951E0,4.905449066E0,9.862921591E0
8.401788750E-1,-3.742816772E0,7.500602417E0,4.816683655E0,9.667893020E0
8.501308750E-1,-3.707939301E0,7.431296539E0,4.710704041E0,9.547969138E0
8.600828750E-1,-3.699407043E0,7.387288055E0,4.432881775E0,9.375930787E0
8.700348750E-1,-3.715573425E0,7.334298248E0,4.223616943E0,9.243178931E0
8.799868750E-1,-3.773203583E0,7.335645447E0,3.992647247E0,9.164605362E0
8.899388750E-1,-3.858675842E0,7.393874359E0,3.852987671E0,9.187179724E0
8.998908750E-1,-3.923790436E0,7.477700043E0,3.821852417E0,9.269233259E0
9.098428750E-1,-3.990551605E0,7.581434326E0,4.072131958E0,9.486037489E0
9.197948750E-1,-3.965703278E0,7.666756897E0,4.543501740E0,9.754453950E0
9.297468750E-1,-3.905229034E0,7.652386780E0,5.077291718E0,9.979415235E0
9.396988750E-1,-3.843706970E0,7.569908295E0,5.614973602E0,1.017867985E1
9.496508749E-1,-3.752696228E0,7.426506500E0,6.016289062E0,1.026798237E1
9.596028751E-1,-3.649411011E0,7.314239960E0,6.292913818E0,1.031586503E1
9.695548750E-1,-3.533252563E0,7.267986145E0,6.474486237E0,1.035502141E1
9.795068750E-1,-3.495531006E0,7.273824005E0,6.496340790E0,1.036000465E1
9.894588750E-1,-3.541186066E0,7.386838989E0,6.402935028E0,1.039725762E1
9.994108750E-1,-3.567231903E0,7.495363312E0,6.347849579E0,1.044991909E1
1.009362875E0,-3.564537506E0,7.574698334E0,6.386469269E0,1.052943361E1
1.019313875E0,-3.521576843E0,7.677384796E0,6.293213196E0,1.053319862E1
1.029265875E0,-3.512146454E0,7.908354492E0,5.941145325E0,1.049640182E1
1.039217875E0,-3.481310577E0,8.319549408E0,5.368436279E0,1.049545300E1
1.049169875E0,-3.424129486E0,8.838819580E0,4.748575287E0,1.060180935E1
1.059121875E0,-3.458857269E0,9.278904419E0,4.169729004E0,1.074469175E1
1.069073875E0,-3.649710388E0,9.543853455E0,3.556005249E0,1.081899709E1
1.079025875E0,-3.947740631E0,9.537267151E0,3.029999084E0,1.075755619E1
1.088977875E0,-4.279301147E0,9.242530060E0,2.878663788E0,1.058411477E1
1.098929875E0,-4.387975159E0,8.791517944E0,3.192561035E0,1.033138712E1
1.108881875E0,-4.119433594E0,8.385262756E0,3.780089264E0,1.007826570E1
1.118833875E0,-3.765868835E0,8.215964813E0,4.618495789E0,1.014959848E1
1.128785875E0,-3.489693146E0,8.186326447E0,5.198539581E0,1.030624630E1
1.138737875E0,-3.388503571E0,8.358618164E0,5.703439636E0,1.067134845E1
1.148689875E0,-3.646117859E0,8.498128052E0,6.328240356E0,1.120531043E1
1.158641875E0,-4.110152893E0,8.123008118E0,6.857839050E0,1.139765652E1
1.168593875E0,-5.044060822E0,7.159012756E0,7.439828796E0,1.149108636E1
1.178545875E0,-6.134094086E0,6.327791290E0,8.193810883E0,1.203356097E1
1.188497875E0,-6.663842468E0,5.600004730E0,8.374185791E0,1.207865212E1
1.198448875E0,-6.791227570E0,4.890929260E0,8.341703339E0,1.181634358E1
1.208400875E0,-6.595734100E0,4.710105286E0,8.805888062E0,1.196797663E1
1.218352875E0,-6.192173309E0,4.722379761E0,9.449998627E0,1.224525847E1
1.228304875E0,-5.831872559E0,4.402794342E0,9.440568237E0,1.193816000E1
1.238256875E0,-5.519023132E0,3.682192841E0,8.843010864E0,1.105517985E1
1.248208875E0,-5.605692902E0,3.401227112E0,7.970774689E0,1.032111370E1
1.258160875E0,-5.872288513E0,3.045417023E0,7.212751007E0,9.786833723E0
1.268112875E0,-6.063740387E0,2.240391083E0,6.505172424E0,9.170908786E0
1.278064875E0,-6.204447784E0,1.884580994E0,5.747747498E0,8.665068905E0
1.288016875E0,-6.400839386E0,1.923350372E0,4.935536499E0,8.308401894E0
1.297968875E0,-6.652166748E0,2.267634430E0,4.232897644E0,8.204322691E0
1.307920875E0,-6.757098541E0,2.847678223E0,3.936064911E0,8.322274866E0
1.317872875E0,-6.743626556E0,3.340004425E0,4.140090637E0,8.589090707E0
1.327824875E0,-6.637048187E0,3.813170471E0,4.597239990E0,8.928902128E0
1.337776875E0,-6.573430481E0,4.255350952E0,4.879253540E0,9.226327282E0
1.347728875E0,-6.360423431E0,4.563709717E0,4.841232605E0,9.204344938E0
1.357680875E0,-6.279741211E0,4.817132721E0,4.699178009E0,9.204465834E0
1.367632875E0,-6.392157440E0,5.110223236E0,4.453239441E0,9.316941546E0
1.377584875E0,-6.458619232E0,5.442681885E0,3.797004089E0,9.260334148E0
1.387535875E0,-6.404581604E0,5.943989410E0,3.014281769E0,9.243136384E0
1.397487875E0,-6.702013092E0,6.572682037E0,2.640808411E0,9.751461312E0
1.407439875E0,-7.351213074E0,7.016060028E0,2.126927032E0,1.038216021E1
1.417391875E0,-8.255033569E0,7.208260345E0,1.995500336E0,1.113941731E1
1.427343875E0,-9.040899353E0,7.333849182E0,2.670446777E0,1.194380555E1
1.437295875E0,-9.319320374E0,7.332801361E0,3.808530121E0,1.245490304E1
1.447247875E0,-9.102571106E0,6.923702087E0,5.033283234E0,1.249513471E1
1.457199875E0,-8.815168762E0,6.325545959E0,6.071524200E0,1.243314675E1
1.467151875E0,-8.519533539E0,5.832022247E0,6.358926544E0,1.212562914E1
1.477103875E0,-8.684041443E0,5.486840057E0,5.541476440E0,1.167158733E1
1.487055875E0,-9.303153992E0,5.138514404E0,4.064946899E0,1.137878718E1
1.497007875E0,-9.889933777E0,4.611460419E0,2.436183929E0,1.118084744E1
1.506959875E0,-1.033929932E1,4.022884369E0,1.162033539E0,1.115504509E1
1.516911875E0,-1.047162415E1,3.439547424E0,3.080593872E-1,1.102634569E1
1.526863875E0,-9.975555725E0,2.937940521E0,-1.610650635E-1,1.040043982E1
1.536815875E0,-9.426198120E0,2.528990936E0,-2.360591125E-1,9.762414151E0
1.546767875E0,-8.643924866E0,2.397713928E0,-2.483335876E-1,8.973747196E0
1.556718875E0,-7.454049225E0,2.521506500E0,-4.068539429E-1,7.879490784E0
1.566670875E0,-6.234684906E0,2.998265076E0,-5.495072937E-1,6.939945793E0
1.576623250E0,-5.376220093E0,3.716621246E0,-1.490899658E-1,6.537525816E0
1.586575250E0,-4.919968872E0,4.738845520E0,1.228345642E0,6.940575162E0
1.596527250E0,-4.679718475E0,5.700595551E0,2.660866699E0,7.840712100E0
1.606479250E0,-4.631967773E0,6.312972107E0,3.198847961E0,8.458213201E0
1.616431250E0,-4.346212006E0,6.200406189E0,3.327879639E0,8.270996228E0
1.626383250E0,-3.319796448E0,5.578449554E0,3.306474152E0,7.285116279E0
1.636335250E0,-2.236648865E0,4.794829102E0,3.498524780E0,6.342922031E0
1.646287250E0,-1.365161133E0,4.158652039E0,3.650758209E0,5.699656761E0
1.656239250E0,-3.543132019E-1,4.191882935E0,3.487148438E0,5.464213082E0
1.666191250E0,-8.726852417E-2,5.250930634E0,3.209625549E0,6.154801742E0
1.676143250E0,-1.604663086E-1,7.141050110E0,3.572620697E0,7.986486383E0
1.686095250E0,2.668949890E-1,7.108717346E0,2.704575806E0,7.610507574E0
1.696047250E0,-1.197509766E-3,6.320157166E0,1.611548767E0,6.522382805E0
1.705999250E0,-1.701960754E-1,7.509883118E0,-5.245841217E0,9.162213773E0
1.715951250E0,8.204438782E-1,1.113100296E1,-9.310788116E0,1.453489355E1
1.725903250E0,3.221151581E0,1.050590286E1,-3.182831268E0,1.144028965E1
1.735855250E0,2.499202881E0,9.010961609E0,-1.742376709E-1,9.352743069E0
1.745806250E0,1.656605072E0,7.527696075E0,9.681866455E-1,7.768393267E0
1.755758250E0,1.869911499E0,4.878505096E0,1.615740051E0,5.468729003E0
1.765710250E0,1.780697021E0,4.132456512E0,1.179098053E0,4.651704089E0
1.775662250E0,2.775079193E0,7.945926361E0,-1.109941864E0,8.489451172E0
1.785614250E0,4.899611206E0,1.197075668E1,-2.888842621E0,1.325332476E1
1.795566250E0,6.111640778E0,1.396071854E1,-2.117346954E0,1.538625923E1
1.805518250E0,5.782624969E0,1.924173660E1,1.083147583E0,2.012104341E1
1.815470250E0,5.518125000E0,2.353525818E1,2.972817993E0,2.435560978E1
1.829154250E0,3.009940796E0,2.427382233E1,4.816533966E0,2.492944431E1
1.839106250E0,3.412753143E0,1.755579254E1,1.504371643E0,1.794758674E1
1.849058250E0,-1.801204376E0,1.183483932E1,-2.162403259E0,1.216485704E1
1.859010250E0,-3.296145630E0,1.001971390E1,-1.208886108E0,1.061699808E1
1.868962250E0,-2.861748962E0,9.389973450E0,8.391549683E-1,9.852176895E0
1.878914250E0,-2.645299072E0,9.339827728E0,1.816173248E0,9.875650583E0
1.888866250E0,-1.246308289E0,1.015682877E1,9.309141541E-1,1.027526428E1
1.898818250E0,7.372169495E-1,1.194830338E1,1.168170776E0,1.202788699E1
1.908770250E0,1.589544525E0,1.264959503E1,1.492097168E0,1.283609209E1
1.918721250E0,1.916015625E0,1.177241913E1,1.048569489E0,1.197332310E1
1.928673250E0,2.871478729E0,1.037148239E1,5.251080322E-1,1.077445013E1
1.938625250E0,2.882555695E0,1.001357666E1,1.454974365E-1,1.042122902E1
1.948577250E0,2.861898651E0,1.063059357E1,-4.496649170E-1,1.101826584E1
1.958529250E0,3.314257965E0,1.117620895E1,-3.222798157E-1,1.166172443E1
1.968481250E0,3.120411072E0,9.896370392E0,-1.004561005E0,1.042517410E1
1.978433250E0,1.224453735E-1,6.428082733E0,-2.649490356E-1,6.434705781E0
1.988385250E0,-5.858816528E-1,7.237150269E0,2.279010773E0,7.610091420E0
1.998337250E0,-2.596650238E0,1.065199905E1,1.476379852E0,1.106288271E1
2.008289250E0,-1.626517639E0,1.143397293E1,1.433119812E0,1.163765995E1
2.018241250E0,6.551875305E-1,1.091619965E1,1.951641541E0,1.110862683E1
2.028193250E0,4.450245667E-1,1.178544205E1,7.698490906E-1,1.181894068E1
2.038145250E0,-1.296753387E0,1.166060165E1,9.553134155E-1,1.177131361E1
2.048097250E0,-2.689008179E0,8.623118134E0,-1.017883301E-1,9.033232655E0
2.058049250E0,-5.184319153E0,2.079924774E0,-2.837200012E0,6.265217957E0
2.068001250E0,-8.736432495E0,-5.924529877E0,-7.197333069E0,1.277602874E1
2.077953250E0,-9.944570160E0,-1.828747101E0,-2.801274719E0,1.049218431E1
2.087904250E0,-6.800059204E0,-1.501377869E-1,1.749412079E0,7.023089716E0
2.097856250E0,-6.161487122E0,-9.610015869E-1,3.099005585E0,6.963568282E0
2.107808250E0,-3.983067169E0,-1.176852722E0,4.593497772E0,6.192739958E0
2.117760250E0,-2.307301941E0,2.175575867E0,6.569688263E0,7.295037798E0
2.127712250E0,-1.015937347E0,1.781445465E0,3.172652435E0,3.777750669E0
2.137664250E0,6.301895142E-1,5.241051178E0,-8.170010376E-1,5.341652082E0
2.147616250E0,4.187541962E0,1.259570709E1,9.470805359E-1,1.330730275E1
2.157568250E0,6.832990723E0,1.699535797E1,6.292015686E0,1.936805143E1
2.167520250E0,5.560037842E0,1.755399628E1,5.361101532E0,1.917806601E1
2.177472250E0,1.212822922E1,2.477243546E1,3.611988831E-1,2.758437904E1
2.187424250E0,1.580233887E1,3.056329330E1,-1.204994202E0,3.442790761E1
2.197376250E0,1.366268829E1,2.256781998E1,-3.879781952E0,2.666511312E1
2.207328250E0,8.282426605E0,1.469763611E1,-3.322041779E0,1.719462297E1
2.217280250E0,8.298293610E0,1.202703964E1,-3.685336304E0,1.506960726E1
2.227232250E0,7.978857880E0,7.262597351E0,-1.246607666E0,1.086100935E1
2.237184250E0,7.085365906E0,6.960375824E0,-4.719685364E-1,9.943439844E0
2.247136250E0,7.813751221E0,7.768694916E0,-8.093669128E-1,1.104818554E1
2.257088250E0,8.211623840E0,9.057664490E0,-1.288969574E0,1.229363635E1
2.267039250E0,7.373965759E0,1.162377823E1,-9.241781616E-1,1.379643782E1
2.276991250E0,2.861299896E0,1.281365387E1,-1.317709808E0,1.319519313E1
2.286943250E0,-3.867956543E-1,1.191671906E1,-5.267546082E-1,1.193462502E1
2.296895250E0,-4.013453979E0,9.746082916E0,3.901636505E0,1.123907080E1
2.306847250E0,-1.637145538E0,8.339907074E0,6.126759338E0,1.047718834E1
2.316799250E0,-2.000140686E0,7.450007629E0,2.118245087E0,7.999383644E0
2.326751250E0,-1.992805939E0,7.452103271E0,-2.838098145E-1,7.719175260E0
2.336703250E0,6.301895142E-2,7.904462585E0,2.415975952E-1,7.908404994E0
2.346655250E0,1.666185150E0,7.610773315E0,8.846603394E-1,7.841088402E0
2.356607250E0,3.265309753E0,7.625442810E0,-2.300715637E-1,8.298346749E0
2.366559250E0,3.911515961E0,7.484735413E0,-4.661306763E-1,8.458043457E0
2.376511250E0,4.450395355E0,7.346572723E0,-5.406756592E-1,8.606420845E0
2.386463250E0,5.009632416E0,7.702532501E0,-3.697311401E-2,9.188405242E0
2.396415250E0,5.658682709E0,8.506510620E0,8.069718933E-1,1.024854217E1
2.406367250E0,6.086792450E0,9.514963531E0,1.720073090E0,1.142550764E1
2.416319250E0,5.882167969E0,1.037342834E1,2.433639221E0,1.217088803E1
2.426271250E0,5.648952942E0,9.873468018E0,1.932331696E0,1.153819508E1
2.436222250E0,5.501659241E0,1.055799454E1,1.539398804E0,1.200455129E1
2.446174250E0,4.580624542E0,1.116767670E1,7.351213074E-1,1.209295362E1
2.456126250E0,2.802322540E0,1.145313309E1,-1.825903015E0,1.193152090E1
2.466078250E0,1.687291260E0,9.613907776E0,2.387235718E0,1.004853566E1
2.476030250E0,2.507286072E0,7.290439453E0,1.879790955E0,7.935402000E0
2.485982250E0,2.760409698E0,9.297465820E0,-5.819897461E-1,9.716040575E0
2.495934250E0,3.170107727E0,8.299940186E0,3.573069763E-1,8.891920960E0
2.505886250E0,3.028202820E0,8.852590942E0,1.215322723E0,9.434796661E0
2.515838250E0,3.006348267E0,9.144483948E0,1.662293243E0,9.768466379E0
2.525790250E0,3.046165466E0,9.127419434E0,1.412013702E0,9.725363349E0
2.535742250E0,2.684367828E0,9.826166382E0,1.187929688E0,1.025526954E1
2.545694250E0,3.011587372E0,9.041348419E0,6.686595154E-1,9.553153683E0
2.555646250E0,3.920497284E0,8.280181274E0,-2.056723022E-1,9.163732972E0
2.565598250E0,3.555406494E0,9.479487305E0,4.716691589E-1,1.013528819E1
2.575550250E0,3.789519653E0,8.953331451E0,3.772155762E-2,9.722346743E0
2.585502333E0,3.435505829E0,9.870324554E0,7.920030212E-1,1.048109135E1
2.595454333E0,4.280199280E0,8.701405334E0,-2.296224976E-1,9.699860162E0
2.605405333E0,4.687801666E0,8.245752869E0,-1.062939606E0,9.544514940E0
2.615357333E0,4.318220215E0,8.067922668E0,8.120613098E-1,9.186830007E0
2.625309333E0,4.238436127E0,9.862241364E0,1.070873108E0,1.078772055E1
2.635261333E0,2.246079254E0,1.241233841E1,1.855840759E0,1.274971222E1
2.645213333E0,3.854185181E0,8.712033234E0,-5.535488892E-1,9.542572129E0
2.655165333E0,4.033063202E0,8.806187439E0,-1.738484802E0,9.840572413E0
2.665117333E0,3.160976715E0,8.024363251E0,7.780819702E-1,8.659537570E0
2.675069333E0,3.045267334E0,8.637787628E0,2.167941742E0,9.411960457E0
2.685021333E0,3.562741241E0,9.418863373E0,1.869761810E0,1.024227131E1
2.694973333E0,4.244124298E0,9.616602173E0,1.840123444E0,1.067134868E1
2.704925333E0,4.763544159E0,9.734257507E0,1.852098541E0,1.099442546E1
2.714877333E0,4.771028595E0,1.026475433E1,1.074465637E0,1.137024062E1
2.724829333E0,4.137545929E0,1.069106781E1,7.961943054E-1,1.149139428E1
2.734781333E0,3.839216309E0,9.290580139E0,-2.993774414E-2,1.005262938E1
2.744733333E0,4.069886627E0,9.114097137E0,-6.622229004E-1,1.000346355E1
2.754685333E0,4.084107056E0,7.354955292E0,7.388635254E-1,8.445188991E0
2.764637333E0,4.264931030E0,9.144783325E0,2.528242493E-1,1.009359296E1
2.774588333E0,4.674179993E0,8.867260437E0,2.103425903E0,1.024210265E1
2.784540333E0,5.409151611E0,1.072220306E1,1.976789246E0,1.217095951E1
2.794492333E0,6.309080200E0,8.949289856E0,2.536026306E0,1.123947113E1
2.804444333E0,6.457272034E0,8.631800079E0,1.471290436E0,1.087975323E1
2.814396333E0,5.993386688E0,8.204289093E0,8.161029053E-1,1.019299110E1
2.824348333E0,5.223687286E0,7.393425293E0,2.107617188E-1,9.055057533E0
2.834300333E0,4.045487366E0,7.825876007E0,-6.771917725E-1,8.835660247E0
2.844252333E0,2.816542969E0,8.555608521E0,-5.915698242E-1,9.026699635E0
2.854204333E0,1.952689362E0,9.803114319E0,-6.744973755E-1,1.001843265E1
2.864156333E0,1.929337921E0,1.010683273E1,-3.065625000E-1,1.029390078E1
2.874108333E0,2.551444244E0,1.013766861E1,4.011657715E-2,1.045388932E1
2.884060333E0,3.681145020E0,1.047132477E1,8.704399109E-1,1.113360394E1
2.894012333E0,5.548511810E0,8.120762787E0,1.879790955E0,1.001331042E1
2.903964333E0,5.990243225E0,8.452472992E0,7.623646545E-1,1.038790226E1
2.913916333E0,5.731581116E0,8.254734192E0,8.017327881E-1,1.008139049E1
2.923868333E0,5.695805511E0,6.302044830E0,1.175056458E0,8.575472415E0
2.933819333E0,6.560407562E0,5.392835541E0,2.245480499E0,8.784293098E0
2.943771333E0,5.436095581E0,7.060517578E0,1.747166748E0,9.080453473E0
2.953723333E0,5.219496002E0,5.630990295E0,1.758992157E0,7.876880324E0
2.963675333E0,6.767427063E0,5.606141968E0,2.364333344E0,9.100382903E0
2.973627333E0,6.795867920E0,7.382198639E0,1.056053925E0,1.008939678E1
2.983579333E0,6.350843353E0,8.326285400E0,2.421963501E-1,1.047467894E1
2.993531333E0,5.346132660E0,8.218210144E0,1.205592957E0,9.877933325E0
3.003483333E0,5.105732574E0,7.062463531E0,2.369123383E0,9.031037695E0
3.013435333E0,4.290827179E0,7.351512451E0,1.695224762E0,8.679269566E0
3.023387333E0,3.159330139E0,7.270680542E0,-2.377056885E-1,7.930994040E0
3.033339333E0,1.583407288E0,8.532556458E0,-2.232607269E0,8.960816568E0
3.043291333E0,1.806742859E-1,9.649683380E0,-3.141068115E0,1.014964736E1
3.053243333E0,-1.013392639E-1,1.007240433E1,-2.990181885E0,1.050736819E1
3.063195333E0,9.681866455E-1,1.061023590E1,-2.571652222E0,1.096028678E1
3.073147333E0,1.752405853E0,1.078582077E1,-1.668131104E0,1.105384627E1
3.083099333E0,2.574047241E0,1.108729385E1,-3.758683777E-1,1.138837483E1
3.093051333E0,3.088826752E0,1.111528564E1,1.772314453E-1,1.153784367E1
3.103003333E0,3.621868286E0,1.076606186E1,8.367599487E-2,1.135927020E1
3.112954333E0,4.068838806E0,9.328601074E0,-1.015937347E0,1.022792139E1
3.122906333E0,4.391567688E0,9.125174103E0,-1.405128021E0,1.022394513E1
3.132858333E0,4.480782166E0,8.607999573E0,-1.046174469E0,9.760611993E0
3.142810333E0,4.039050751E0,7.926167450E0,-3.606001282E-1,8.903263102E0
3.152762333E0,3.573069763E0,7.816445618E0,1.782792664E-1,8.596245292E0
3.162714333E0,2.248773651E0,1.152737869E1,2.567161560E-1,1.174748252E1
3.172666333E0,3.538641357E-1,8.458909607E0,1.178199921E0,8.547896035E0
3.182618333E0,1.415306854E0,7.201224976E0,-2.056723022E-1,7.341868682E0
3.192570333E0,2.718047791E0,1.009036697E1,-4.379891968E-1,1.045921240E1
3.202522333E0,3.362158356E0,1.044707520E1,2.704875183E-1,1.097809876E1
3.212474333E0,3.095413055E0,9.208550720E0,8.750802612E-1,9.754217232E0
3.222426333E0,2.685715027E0,8.920250244E0,5.278024292E-1,9.330729073E0
3.232378333E0,2.453697510E0,8.810229034E0,5.227130127E-1,9.160458286E0
3.242330333E0,2.404300232E0,8.240064697E0,5.292993164E-1,8.599969976E0
3.252282333E0,2.302960968E0,7.535180511E0,3.659889221E-1,7.887745080E0
3.262234333E0,2.067201233E0,7.173083496E0,2.362088013E-1,7.468751059E0
3.272186333E0,1.864522705E0,7.272027740E0,1.862127686E-1,7.509561077E0
3.282137333E0,1.987866211E0,7.838300171E0,1.266366577E-1,8.087434605E0
3.292089333E0,2.719844055E0,9.020391998E0,2.333647156E-1,9.424408872E0
3.302041333E0,2.714155884E0,1.080378342E1,3.778143311E-1,1.114590158E1
3.311993333E0,2.533481598E0,1.277623169E1,4.498146057E-1,1.303276480E1
3.321945333E0,3.554208984E0,1.485181549E1,-7.000941467E-1,1.528721547E1
3.331897333E0,4.292773132E0,8.520581360E0,9.993218994E-1,9.593062709E0
3.341849333E0,3.462449799E0,6.037993927E0,2.252515869E0,7.315719856E0
3.351801333E0,2.760858765E0,6.687044220E0,8.587641907E-1,7.285353626E0
3.361753333E0,2.401905212E0,8.890761566E0,1.046024780E0,9.268708525E0
3.371705333E0,1.883533173E0,9.435029755E0,9.385482788E-1,9.666869015E0
3.381657333E0,1.525028687E0,9.192234650E0,1.383722534E0,9.420062548E0
3.391609333E0,1.506766663E0,9.121282196E0,1.924547882E0,9.443093732E0
3.401561333E0,1.953288116E0,9.098978577E0,1.753453674E0,9.470023516E0
3.411513333E0,2.417772217E0,8.888516235E0,1.225950623E0,9.292701345E0
3.421465333E0,2.756667480E0,8.607700195E0,8.174501038E-1,9.075237899E0
3.431417333E0,3.126548309E0,8.513695679E0,5.849835205E-1,9.088483051E0
3.441369333E0,3.642076263E0,8.542585602E0,2.420466614E-1,9.289729536E0
3.451320333E0,3.809877319E0,8.782985687E0,-2.180964661E-1,9.576198037E0
3.461272333E0,4.122427368E0,8.835825806E0,-5.816903687E-1,9.767527259E0
3.471224333E0,4.656067657E0,8.920549622E0,-1.978884888E-1,1.006450850E1
3.481176333E0,4.805756378E0,9.032816162E0,2.165995789E-1,1.023396197E1
3.491128333E0,4.783752136E0,8.978179779E0,1.487905884E-1,1.017418966E1
3.501080333E0,4.307143250E0,8.961714020E0,-3.847000122E-2,9.943102186E0
3.511032333E0,3.513343964E0,8.979826355E0,-3.400927734E-1,9.648654324E0
3.520984333E0,3.024310913E0,9.033564606E0,-5.816903687E-1,9.544113876E0
3.530936333E0,2.804867249E0,8.808732147E0,-9.169931030E-1,9.289882597E0
3.540888333E0,2.799927521E0,8.721463623E0,-1.013093262E0,9.215740871E0
3.550840333E0,3.007396088E0,8.842112732E0,-1.033151550E0,9.396530792E0
3.560792333E0,3.249891815E0,9.119485931E0,-9.330097961E-1,9.726115758E0
3.570744333E0,3.421734467E0,9.466314697E0,-9.942324829E-1,1.011473573E1
3.580696500E0,3.707639923E0,9.687105560E0,-1.139580231E0,1.043480958E1
3.590648500E0,3.986959076E0,9.676627350E0,-1.463207245E0,1.056758889E1
3.600600500E0,4.266577606E0,9.373208313E0,-1.534010010E0,1.041219983E1
3.610552500E0,4.342170410E0,8.836274872E0,-1.381177826E0,9.941923841E0
3.620503500E0,4.208648071E0,8.390801239E0,-1.179547119E0,9.460951085E0
3.630455500E0,3.925287323E0,8.199798431E0,-1.216819611E0,9.171980421E0
3.640407500E0,3.443888397E0,8.495583344E0,-7.685018921E-1,9.199233598E0
3.650359500E0,3.297941895E0,8.755592651E0,-5.689668274E-1,9.373395685E0
3.660311500E0,3.098706207E0,8.835676117E0,-7.780819702E-1,9.395560875E0
3.670263500E0,2.921774139E0,8.624016266E0,-1.068328400E0,9.167973944E0
3.680215500E0,2.915636902E0,8.377179565E0,-1.414857788E0,8.982198983E0
3.690167500E0,3.082240448E0,8.411757660E0,-1.605261841E0,9.101359167E0
3.700119500E0,3.157533875E0,8.742420044E0,-1.766326904E0,9.461492437E0
3.710071500E0,2.699486389E0,9.212442627E0,-1.551822968E0,9.724426998E0
3.720023500E0,1.960473175E0,9.885143738E0,-8.753796387E-1,1.011562214E1
3.729975500E0,1.501826935E0,1.024828857E1,-2.161505127E-1,1.036000115E1
3.739927500E0,1.700314178E0,1.011910721E1,4.848417664E-1,1.027241308E1
3.749879500E0,1.841171265E0,9.715845795E0,8.834628296E-1,9.928145733E0
3.759831500E0,2.001936951E0,9.151669006E0,8.544232178E-1,9.406956798E0
3.769783500E0,2.145937500E0,8.487051086E0,5.126838684E-1,8.769146404E0
3.779734500E0,2.536325684E0,7.939789124E0,-1.526824951E-2,8.335072430E0
3.789686500E0,3.256178741E0,7.748486938E0,-6.346801758E-2,8.405104284E0
3.799638500E0,4.068090363E0,7.939190369E0,-1.574725342E-1,8.922157839E0
3.809590500E0,4.453688507E0,8.054600372E0,-1.020877075E-1,9.204474476E0
3.819542500E0,4.287683716E0,8.054600372E0,1.055305481E-1,9.125346870E0
3.829494500E0,3.886068878E0,8.063581696E0,-5.278024292E-1,8.966685926E0
3.839446500E0,3.285966797E0,8.035440216E0,-1.772913208E0,8.860536016E0
3.849398500E0,2.612666931E0,8.138426056E0,-1.163530426E0,8.626343966E0
3.859350500E0,2.844235382E0,9.063352661E0,2.007026367E0,9.708871778E0
3.869302500E0,2.991379395E0,1.090542206E1,4.522695007E0,1.217913589E1
3.879254500E0,3.578009491E0,1.278790741E1,3.078797607E0,1.363127736E1
3.889206500E0,3.362906799E0,1.318518127E1,1.086440735E0,1.365058610E1
3.899158500E0,2.555635529E0,1.178559174E1,2.389181671E0,1.229388606E1
3.909110500E0,2.602188721E0,1.024888733E1,3.255130920E0,1.106376766E1
3.919062500E0,2.914289703E0,9.634265442E0,3.122207336E0,1.053851668E1
3.929014500E0,3.030148773E0,9.516909485E0,2.737956390E0,1.035614663E1
3.938966500E0,3.260968781E0,9.188492432E0,2.523602142E0,1.007128980E1
3.948917500E0,3.785627747E0,8.743617554E0,2.552641754E0,9.863964988E0
3.958869500E0,4.331392822E0,8.514593811E0,2.485281830E0,9.870962330E0
3.968821500E0,4.752317505E0,8.595725098E0,2.146835632E0,1.005385075E1
3.978773500E0,4.934189301E0,8.701255646E0,1.665736084E0,1.014064843E1
3.988725500E0,4.771327972E0,8.788374481E0,1.435963898E0,1.010262782E1
3.998677500E0,4.554578705E0,9.114995270E0,1.525926819E0,1.030319264E1
4.008629500E0,4.556075592E0,9.415570221E0,1.985471191E0,1.064673111E1
4.018581500E0,4.635560303E0,9.422156525E0,2.438429260E0,1.078013869E1
4.028533500E0,4.736151123E0,9.167835388E0,2.833607483E0,1.070091886E1
4.038485500E0,4.684358826E0,8.881780243E0,3.200943604E0,1.053922568E1
4.048437500E0,4.406386871E0,8.805438995E0,3.606749725E0,1.048621213E1
4.058389500E0,3.947141876E0,9.007219391E0,3.831881561E0,1.055429990E1
4.068341500E0,3.590882721E0,9.375154266E0,3.705544281E0,1.070135574E1
4.078293500E0,3.507805481E0,9.661508789E0,3.428769836E0,1.083540096E1
4.088245500E0,3.554358673E0,9.758656769E0,3.330424347E0,1.090672150E1
4.098197500E0,3.722758484E0,9.714348907E0,3.420836334E0,1.095123859E1
4.108149500E0,4.013903046E0,9.529782715E0,3.475772095E0,1.090913232E1
4.118100500E0,4.281696167E0,9.210945740E0,3.458408203E0,1.073009929E1
4.128052500E0,4.472698975E0,8.818012848E0,3.327729950E0,1.043245768E1
4.138004500E0,4.474345551E0,8.515342255E0,3.232527924E0,1.014790908E1
4.147956500E0,4.426744537E0,8.508007507E0,3.376528473E0,1.016775312E1
4.157908500E0,4.294270020E0,8.663085022E0,3.525319061E0,1.029163114E1
4.167860500E0,4.048181763E0,8.812624054E0,3.561693420E0,1.033130090E1
4.177812500E0,3.844006348E0,8.941506042E0,3.422931976E0,1.031714003E1
4.187764500E0,3.692072296E0,8.996890869E0,3.257675629E0,1.025611494E1
4.197716500E0,3.658841400E0,9.014404449E0,3.302731934E0,1.027397908E1
4.207668500E0,3.659889221E0,8.966504059E0,3.279679871E0,1.022493444E1
4.217620500E0,3.723207550E0,8.903036041E0,3.036286011E0,1.011658826E1
4.227572500E0,3.837569733E0,8.904532928E0,2.709066467E0,1.006760593E1
4.237524500E0,3.984564056E0,8.902586975E0,2.356549530E0,1.003424792E1
4.247476500E0,4.046385498E0,8.791817322E0,2.439626770E0,9.981035327E0
4.257428500E0,3.974235535E0,8.608897705E0,2.764151917E0,9.876649412E0
4.267380500E0,3.946992188E0,8.431815948E0,2.885699158E0,9.746872685E0
4.277331500E0,3.940256195E0,8.287066956E0,2.758912811E0,9.581894255E0
4.287283500E0,3.914360046E0,8.249644775E0,2.614912262E0,9.498242976E0
4.297235500E0,3.929328918E0,8.356821899E0,2.618504791E0,9.598576215E0
4.307187500E0,3.979324951E0,8.574020233E0,2.765798492E0,9.848781210E0
4.317139500E0,4.017944641E0,8.898096313E0,2.838397522E0,1.016742335E1
4.327091500E0,4.066892853E0,9.243128815E0,2.752176819E0,1.046659090E1
4.337043500E0,4.001029816E0,9.551786957E0,2.580034790E0,1.067246238E1
4.346995500E0,3.774999847E0,9.745334473E0,2.467019806E0,1.073817278E1
4.356947500E0,3.423381042E0,9.853709106E0,2.317480774E0,1.068577737E1
4.366899500E0,3.118465118E0,9.892179108E0,2.024539948E0,1.056781880E1
4.376851500E0,2.863245850E0,9.889185333E0,1.777104492E0,1.044759607E1
4.386803500E0,2.703527985E0,9.911039886E0,1.706601105E0,1.041394558E1
4.396755500E0,2.640958099E0,9.947264557E0,1.686991882E0,1.042922209E1
4.406707500E0,2.737657013E0,9.873468018E0,1.828447723E0,1.040785077E1
4.416659500E0,3.015179901E0,9.752070465E0,2.012265472E0,1.040400887E1
4.426611500E0,3.421884155E0,9.564061432E0,1.986818390E0,1.035026616E1
4.436563500E0,3.819906464E0,9.250463562E0,1.958826599E0,1.019802741E1
4.446514500E0,4.057312775E0,8.954828339E0,1.925595703E0,1.001791677E1
4.456466500E0,4.152365112E0,8.761729889E0,1.843566284E0,9.869588812E0
4.466418500E0,4.110901337E0,8.803043976E0,1.745669861E0,9.871193256E0
4.476370500E0,4.028871918E0,9.006620636E0,1.523232422E0,9.983549530E0
4.486322500E0,3.880081329E0,9.287286987E0,1.327289886E0,1.015236077E1
4.496274500E0,3.716920624E0,9.578431549E0,1.244512024E0,1.034942801E1
4.506226500E0,3.529959412E0,9.774074707E0,1.353335724E0,1.047972649E1
4.516178500E0,3.391347656E0,9.836494904E0,1.572629700E0,1.052288150E1
4.526130500E0,3.234024811E0,9.783355408E0,1.727707214E0,1.044786733E1
4.536082500E0,3.123704224E0,9.661658478E0,1.849404144E0,1.032111759E1
4.546034500E0,3.109633484E0,9.563312988E0,1.905836792E0,1.023518391E1
4.555986500E0,3.124602356E0,9.602232056E0,1.922302551E0,1.027916570E1
4.565938500E0,3.102298737E0,9.748028870E0,1.956281891E0,1.041515065E1
4.575890500E0,3.064876556E0,9.887389069E0,1.994751892E0,1.054196215E1
4.585842333E0,2.964285736E0,9.911938019E0,1.947001190E0,1.052731299E1
4.595794333E0,2.833607483E0,9.893376617E0,1.909878387E0,1.046689389E1
4.605745333E0,2.634970551E0,9.874216461E0,1.934577026E0,1.040124073E1
4.615697333E0,2.435285797E0,9.838590546E0,1.743723907E0,1.028440829E1
4.625649333E0,2.299218750E0,9.845925293E0,1.525627441E0,1.022527216E1
4.635601333E0,2.195484467E0,9.856403503E0,1.322499847E0,1.018419599E1
4.645553333E0,2.123484192E0,9.902657318E0,1.055455170E0,1.018262209E1
4.655505333E0,2.066153412E0,9.836943970E0,8.665480042E-1,1.008887318E1
4.665457333E0,2.076182556E0,9.742789764E0,7.932005310E-1,9.993080280E0
4.675409333E0,2.176024933E0,9.533375244E0,1.019529877E0,9.831570028E0
4.685361333E0,2.308349762E0,9.304800568E0,1.495390320E0,9.702782304E0
4.695313333E0,2.426603851E0,9.226363678E0,2.014510803E0,9.750510076E0
4.705265333E0,2.526146851E0,9.526938629E0,2.186952209E0,1.009587725E1
4.715217333E0,2.639012146E0,9.770631866E0,2.163900146E0,1.034949738E1
4.725169333E0,2.699785767E0,1.000549347E1,2.137255554E0,1.058142732E1
4.735121333E0,2.555336151E0,1.014215927E1,1.953737183E0,1.064002944E1
4.745073333E0,2.273172913E0,1.015682877E1,1.786534882E0,1.056031214E1
4.755025333E0,1.956281891E0,1.014006363E1,1.559307404E0,1.044410689E1
4.764977333E0,1.684596863E0,1.016102005E1,1.452130280E0,1.040158052E1
4.774928333E0,1.504371643E0,1.016536102E1,1.394051056E0,1.037020140E1
4.784880333E0,1.403930511E0,1.020562729E1,1.340911560E0,1.038864250E1
4.794832333E0,1.396745453E0,1.019634659E1,1.258133698E0,1.036818605E1
4.804784333E0,1.506916351E0,1.009515701E1,1.240021362E0,1.028205451E1
4.814736333E0,1.620230713E0,1.011895752E1,1.109792175E0,1.030776831E1
4.824688333E0,1.737287292E0,1.023960663E1,8.544232178E-1,1.042102443E1
4.834640333E0,1.899100800E0,1.034528687E1,5.206173706E-1,1.053102970E1
4.844592333E0,2.060016174E0,1.013751892E1,1.757345581E-1,1.034619926E1
4.854544333E0,2.195933533E0,9.652078400E0,-1.498384094E-1,9.899858234E0
4.864496333E0,2.286794586E0,9.137149200E0,-2.601589966E-1,9.422558447E0
4.874448333E0,2.284399567E0,8.835526428E0,-2.604583740E-1,9.129778048E0
4.884400333E0,2.224374390E0,8.865314484E0,-3.766168213E-1,9.147867650E0
4.894352333E0,2.129322052E0,9.032367096E0,-6.471043396E-1,9.302494923E0
4.904304333E0,1.995051270E0,9.202712860E0,-1.180744629E0,9.490221885E0
4.914256333E0,1.885928192E0,9.189540253E0,-1.654359741E0,9.525821820E0
4.924208333E0,1.759291534E0,8.976533203E0,-1.718426514E0,9.307322103E0
4.934159333E0,1.698667603E0,8.800050201E0,-1.401685181E0,9.071442913E0
4.944111333E0,1.950144653E0,9.046886902E0,-9.136999512E-1,9.299681413E0
4.954063333E0,2.214494934E0,9.621541901E0,-5.697152710E-1,9.889521315E0
4.964015333E0,2.207160187E0,1.011596375E1,-4.135899353E-1,1.036220706E1
4.973967333E0,2.066303101E0,1.046653473E1,-4.318519592E-1,1.067728682E1
4.983919333E0,2.042352905E0,1.056398209E1,-8.059240723E-1,1.078973756E1
4.993871333E0,2.168839874E0,1.036669235E1,-1.225052490E0,1.066175081E1
5.003823333E0,2.510579224E0,1.002375549E1,-1.501377869E0,1.044187807E1
5.013775333E0,2.950963440E0,9.647138672E0,-1.720971222E0,1.023411998E1
5.023727333E0,3.155587921E0,9.343719635E0,-1.712289276E0,1.000973358E1
5.033679333E0,3.250939636E0,9.301507416E0,-1.296454010E0,9.938181007E0
5.043631333E0,3.429967346E0,9.509874115E0,-5.270539856E-1,1.012324886E1
5.053583333E0,3.680246887E0,9.781858521E0,5.186714172E-1,1.046412888E1
5.063535333E0,3.763922882E0,9.905800781E0,1.161434784E0,1.066025025E1
5.073487333E0,3.641028442E0,9.674831085E0,7.455995178E-1,1.036413833E1
5.083439333E0,3.506458282E0,8.994795227E0,1.606159973E-1,9.655433101E0
5.093390333E0,3.300636292E0,8.025111694E0,-4.288581848E-1,8.687953555E0
5.103342333E0,3.054847412E0,7.208410034E0,-6.960525513E-2,7.829311133E0
5.113294333E0,2.779869232E0,7.244185638E0,1.073866882E0,7.833204235E0
5.123246333E0,2.418370972E0,8.017028503E0,2.041604462E0,8.619130638E0
5.133198333E0,2.112407227E0,8.929830322E0,2.016007690E0,9.395127508E0
5.143150333E0,2.510429535E0,1.000878662E1,2.947969666E0,1.073166302E1
5.153102333E0,3.566184082E0,1.089808731E1,4.178560638E0,1.220435762E1
5.163054333E0,4.208199005E0,1.137604340E1,4.893024902E0,1.307918174E1
5.173006333E0,4.116439819E0,1.105062012E1,5.128335571E0,1.285928099E1
5.182958333E0,3.648063812E0,9.649982758E0,5.377417603E0,1.163387970E1
5.192910333E0,3.113525391E0,8.099506989E0,6.250701599E0,1.069426595E1
5.202862333E0,2.436632996E0,7.073241119E0,7.069947968E0,1.029330290E1
5.212814333E0,1.711241455E0,7.177873535E0,7.211254120E0,1.031757732E1
5.222766333E0,1.082848206E0,8.209378510E0,5.967939606E0,1.020699559E1
5.232718333E0,5.833369446E-1,8.789422302E0,4.386178894E0,9.840365425E0
5.242670333E0,4.249662781E-1,8.661438446E0,3.191213837E0,9.240398154E0
5.252621333E0,6.253994751E-1,8.208330688E0,2.311642914E0,8.550526893E0
5.262573333E0,1.284628601E0,7.653434601E0,2.101779327E0,8.040075135E0
5.272525333E0,2.122436371E0,6.975943451E0,2.470462646E0,7.698812172E0
5.282477333E0,2.743195496E0,6.168971558E0,2.873873749E0,7.337607371E0
5.292429333E0,3.135230255E0,5.566175079E0,3.764970703E0,7.415320503E0
5.302381333E0,3.338208160E0,5.346581726E0,4.207001495E0,7.578154885E0
5.312333333E0,3.232228546E0,5.523962860E0,4.135599976E0,7.620016681E0
5.322285333E0,2.826422424E0,6.236930237E0,3.600013733E0,7.736152880E0
5.332237333E0,2.297871552E0,7.038213959E0,2.876717834E0,7.943058284E0
5.342189333E0,1.875449982E0,7.745044098E0,2.240391083E0,8.277824166E0
5.352141333E0,1.805096283E0,8.240064697E0,2.582130432E0,8.821815934E0
5.362093333E0,2.047292633E0,8.586294708E0,3.345542908E0,9.439730997E0
5.372045333E0,2.355950775E0,9.123078461E0,3.975133667E0,1.022657090E1
5.381997333E0,2.477797394E0,9.499395905E0,4.570745087E0,1.082911414E1
5.391949333E0,2.435435486E0,9.589358826E0,4.857099609E0,1.102173150E1
5.401901333E0,2.094893646E0,9.422455902E0,5.057083740E0,1.089703403E1
5.411852333E0,1.619182892E0,9.088051300E0,4.816683655E0,1.041224621E1
5.421804333E0,1.419348450E0,8.941655731E0,4.291875000E0,1.001937864E1
5.431756333E0,1.618284760E0,8.839867401E0,3.816014557E0,9.763404546E0
5.441708333E0,2.143093414E0,8.657097473E0,3.724704437E0,9.664968142E0
5.451660333E0,2.641706543E0,8.382418671E0,4.239184570E0,9.757778541E0
5.461612333E0,2.815495148E0,8.109685822E0,4.642895050E0,9.759635828E0
5.471564333E0,2.734812927E0,8.227790222E0,4.746030579E0,9.884358347E0
5.481516333E0,2.620151367E0,8.752299500E0,4.994962921E0,1.041237698E1
5.491468333E0,2.682421875E0,9.680818634E0,4.995561676E0,1.121914761E1
5.501420333E0,3.140768738E0,1.098730179E1,4.409230957E0,1.224853242E1
5.511372333E0,3.736978912E0,1.222672440E1,4.332290955E0,1.349913130E1
5.521324333E0,4.124672699E0,1.302770874E1,4.354295197E0,1.434203635E1
5.531276333E0,3.896696777E0,1.289882675E1,4.299209747E0,1.414380365E1
5.541228333E0,3.148253174E0,1.187690186E1,4.229454803E0,1.299463673E1
5.551180333E0,2.286345520E0,1.051129166E1,3.974983978E0,1.146800444E1
5.561132333E0,1.715582428E0,9.077872467E0,3.379821625E0,9.837387143E0
5.571083333E0,1.525328064E0,8.005951538E0,3.007246399E0,8.687083322E0
5.581035333E0,1.656605072E0,7.589367828E0,2.851121063E0,8.274764995E0
5.590987333E0,2.184407501E0,7.640261993E0,2.934946747E0,8.471077373E0
5.600939333E0,3.024161224E0,7.775131531E0,3.121758270E0,8.907502239E0
5.610891333E0,3.873644714E0,7.870483246E0,3.263214111E0,9.359390805E0
5.620843333E0,4.321064301E0,8.150550842E0,3.341950378E0,9.811814718E0
5.630795333E0,4.369114380E0,8.628357239E0,3.200793915E0,1.018738390E1
5.640747333E0,4.060456238E0,9.078770599E0,2.644251251E0,1.029093995E1
5.650699333E0,3.677103424E0,9.435029755E0,1.848655701E0,1.029360986E1
5.660651333E0,3.320395203E0,9.708061981E0,1.100062408E0,1.031899361E1
5.670603333E0,3.023113403E0,9.901908875E0,6.671626282E-1,1.037459011E1
5.680555333E0,3.032843170E0,1.008767258E1,7.158114624E-1,1.055801410E1
5.690507333E0,3.184178467E0,1.025936554E1,1.265169067E0,1.081638695E1
5.700459333E0,3.328179016E0,1.018497025E1,1.978136444E0,1.089602764E1
5.710411333E0,3.379522247E0,9.860295410E0,2.503543854E0,1.071981007E1
5.720362333E0,3.279530182E0,9.433083801E0,2.827919312E0,1.037957205E1
5.730314333E0,2.889591064E0,9.115144958E0,2.625240784E0,9.916022051E0
5.740266333E0,2.471360779E0,9.075477448E0,2.347268829E0,9.694410037E0
5.750218333E0,2.172133026E0,9.211694183E0,2.201322327E0,9.716958969E0
5.760170333E0,2.107617188E0,9.385333099E0,2.079475708E0,9.841277702E0
5.770122333E0,2.135608978E0,9.431736603E0,2.073039093E0,9.890195758E0
5.780074333E0,2.202669525E0,9.340875549E0,2.201921082E0,9.846429074E0
5.790026333E0,2.264940033E0,9.184301147E0,2.106569366E0,9.691180290E0
5.799978333E0,2.342778168E0,8.919352112E0,1.909728699E0,9.417564194E0
5.809930333E0,2.447560272E0,8.633446655E0,1.794019318E0,9.151254436E0
5.819882333E0,2.511028290E0,8.477620697E0,1.926344147E0,9.049094846E0
5.829834333E0,2.702929230E0,8.423583069E0,2.074236603E0,9.086530450E0
5.839786333E0,3.004402313E0,8.445587311E0,2.103575592E0,9.207573435E0
5.849738333E0,3.185226288E0,8.579259338E0,1.991608429E0,9.365674638E0
5.859690333E0,3.233276367E0,8.928782501E0,1.722318420E0,9.651093915E0
5.869641333E0,3.181783447E0,9.349856873E0,1.386267242E0,9.973229482E0
5.879593333E0,3.102747803E0,9.647587738E0,9.123527527E-1,1.017523369E1
5.889545333E0,3.007096710E0,9.743238831E0,8.111631775E-1,1.022894517E1
5.899497333E0,2.977458344E0,9.673334198E0,1.039139099E0,1.017440233E1
5.909449333E0,2.912194061E0,9.298363953E0,1.079105988E0,9.803311490E0
5.919401333E0,2.851270752E0,8.798253937E0,1.038390656E0,9.306840086E0
5.929353333E0,2.812651062E0,8.398884430E0,1.117725677E0,8.927573934E0
5.939305333E0,2.874322815E0,8.140521698E0,1.163979492E0,8.711180943E0
5.949257333E0,2.761307831E0,7.927963715E0,1.281485138E0,8.492327935E0
5.959209333E0,2.525398407E0,7.798482971E0,1.328637085E0,8.304170655E0
5.969161333E0,2.336940308E0,7.833360443E0,1.358425140E0,8.286624445E0
5.979113333E0,2.104773102E0,7.904612274E0,1.113085327E0,8.255417855E0
5.989065333E0,2.132914581E0,8.019872589E0,9.202862549E-1,8.349527397E0
5.999017333E0,2.335443420E0,8.111781464E0,9.725276184E-1,8.497123305E0
6.008969333E0,2.811004486E0,8.161178741E0,1.148411865E0,8.707780112E0
6.018921333E0,3.264261932E0,8.190966797E0,1.352437592E0,8.920562228E0
6.028872333E0,3.634292450E0,8.381969604E0,1.387464752E0,9.240700975E0
6.038824333E0,3.877237244E0,8.703950043E0,1.358724518E0,9.624855703E0
6.048776333E0,4.070186005E0,9.047485657E0,1.254241791E0,9.999826663E0
6.058728333E0,4.016148376E0,9.275760956E0,1.151255951E0,1.017322856E1
6.068680333E0,3.802093506E0,9.315727844E0,1.034349060E0,1.011477030E1
6.078632333E0,3.589535522E0,9.184151459E0,1.124611359E0,9.924623620E0
6.088584333E0,3.560046844E0,9.010662231E0,1.396146698E0,9.788523535E0
6.098536333E0,3.635489960E0,8.836125183E0,1.734293518E0,9.710904670E0
6.108488333E0,3.532354431E0,8.725954285E0,1.962868195E0,9.616270460E0
6.118440333E0,3.449277191E0,8.729696503E0,2.084565125E0,9.615119652E0
6.128392333E0,3.267854462E0,8.727900238E0,2.077380066E0,9.548330916E0
6.138344333E0,3.126099243E0,8.700507202E0,1.976340179E0,9.453953806E0
6.148296333E0,3.004402313E0,8.678502960E0,1.879790955E0,9.374244552E0
6.158248333E0,2.920426941E0,8.624914398E0,1.820963287E0,9.286223624E0
6.168200333E0,2.999462585E0,8.644224243E0,1.721569977E0,9.310380860E0
6.178151333E0,3.142115936E0,8.695417786E0,1.537752228E0,9.372719186E0
6.188103333E0,3.264860687E0,8.750503235E0,1.456022186E0,9.452545836E0
6.198055333E0,3.416195984E0,8.741072845E0,1.508413239E0,9.505370061E0
6.208007333E0,3.623664551E0,8.652307434E0,1.492695923E0,9.498500399E0
6.217959333E0,3.673660583E0,8.581804047E0,1.414259033E0,9.441571447E0
6.227911333E0,3.617078247E0,8.555608521E0,1.390009460E0,9.392221170E0
6.237863333E0,3.567231903E0,8.507558441E0,1.347048798E0,9.322994934E0
6.247815333E0,3.469036102E0,8.456963654E0,1.516646118E0,9.265779037E0
6.257767333E0,3.485501862E0,8.379574585E0,1.881736908E0,9.268598990E0
6.267719333E0,3.615880737E0,8.326285400E0,2.164349213E0,9.331989584E0
6.277671333E0,3.943998413E0,8.331075439E0,2.228415985E0,9.483025850E0
6.287623333E0,4.246519318E0,8.302484894E0,2.141147461E0,9.568108182E0
6.297575333E0,4.345613251E0,8.314759369E0,1.951791229E0,9.582748400E0
6.307527333E0,4.433480530E0,8.420589294E0,1.738634491E0,9.673930099E0
6.317479333E0,4.503085785E0,8.658145294E0,1.781445465E0,9.920423855E0
6.327431333E0,4.575535126E0,8.804241486E0,1.683698730E0,1.006404646E1
6.337382333E0,4.678820343E0,8.811725922E0,1.378633118E0,1.007166832E1
6.347334333E0,4.613406372E0,8.817713470E0,1.044228516E0,1.000629814E1
6.357286333E0,4.496649170E0,8.861422577E0,8.696914673E-1,9.975020155E0
6.367238333E0,4.366120605E0,8.900790710E0,1.003064117E0,9.964598438E0
6.377190333E0,4.227359161E0,8.910969543E0,1.303938446E0,9.948678262E0
6.387142333E0,4.083208923E0,8.904233551E0,1.426234131E0,9.899096627E0
6.397094333E0,3.918401642E0,8.875792694E0,1.244212646E0,9.781698855E0
6.407046333E0,3.692671051E0,8.790170746E0,1.126257935E0,9.600592595E0
6.416998333E0,3.383114777E0,8.566835175E0,1.062340851E0,9.271714975E0
6.426950333E0,3.099005585E0,8.364605713E0,1.029109955E0,8.979394837E0
6.436902333E0,2.862946472E0,8.180488586E0,1.142723694E0,8.742006260E0
6.446854333E0,2.772684174E0,8.204588470E0,1.367107086E0,8.767669661E0
6.456806333E0,2.819985809E0,8.341254272E0,1.701511688E0,8.967942062E0
6.466758333E0,2.997366943E0,8.395890656E0,2.029479675E0,9.142974147E0
6.476710333E0,3.165018311E0,8.443791046E0,2.215093689E0,9.285558044E0
6.486661333E0,3.257376251E0,8.553512878E0,2.291135559E0,9.435167447E0
6.496613333E0,3.382216644E0,8.734336853E0,2.294428711E0,9.643258412E0
6.506565333E0,3.599265289E0,9.008117523E0,2.283501434E0,9.965704728E0
6.516517333E0,3.933520203E0,9.255403290E0,2.229463806E0,1.030075629E1
6.526469333E0,4.350852356E0,9.342073059E0,2.108066254E0,1.051894427E1
6.536421333E0,4.683011627E0,9.222920837E0,1.829645233E0,1.050430713E1
6.546373333E0,4.963079224E0,9.025182037E0,1.632355499E0,1.042835800E1
6.556325333E0,5.192552032E0,8.877289581E0,1.675465851E0,1.041998334E1
6.566277333E0,5.473218384E0,8.814570007E0,1.682351532E0,1.051109274E1
6.576229333E0,5.662275238E0,8.868457947E0,1.661993866E0,1.065237677E1
6.586181083E0,5.746849365E0,8.905131683E0,1.431173859E0,1.069466720E1
6.596133083E0,5.754633179E0,8.870703278E0,1.196461945E0,1.064127346E1
6.606085083E0,5.585335236E0,8.782237244E0,9.136999512E-1,1.044789492E1
6.616037083E0,5.219496002E0,8.766519928E0,4.334985352E-1,1.021190145E1
6.625989083E0,4.909490662E0,8.839568024E0,-1.288819885E-1,1.011225356E1
6.635940083E0,4.694238281E0,8.952732697E0,-7.080276489E-1,1.013353832E1
6.645892083E0,4.651576996E0,9.123976593E0,-8.990304565E-1,1.028067961E1
6.655844083E0,4.863985291E0,9.254954224E0,-3.897894287E-1,1.046252677E1
6.665796083E0,5.056634674E0,9.323811035E0,2.790197754E-1,1.061041274E1
6.675748083E0,5.394631805E0,9.384135590E0,4.110452271E-1,1.083203634E1
6.685700083E0,5.739364929E0,9.319320374E0,1.493893433E-1,1.094588321E1
6.695652083E0,5.656138000E0,9.067094879E0,-6.406677246E-2,1.068682419E1
6.705604083E0,5.308261414E0,8.921148376E0,-2.395019531E-3,1.038096977E1
6.715556083E0,4.903952179E0,8.964857483E0,9.879455566E-2,1.021896164E1
6.725508083E0,4.534370728E0,9.024433594E0,3.541635132E-1,1.010575833E1
6.735460083E0,4.208348694E0,9.159003754E0,2.300715637E-1,1.008218634E1
6.745412083E0,3.684587860E0,9.330696716E0,-2.649490356E-2,1.003188870E1
6.755364083E0,3.039579163E0,9.408684540E0,5.513035583E-1,9.902844130E0
6.765316083E0,2.411934357E0,9.496102753E0,1.117575989E0,9.861154644E0
6.775268083E0,2.133363647E0,9.694589996E0,1.534010010E0,1.004437665E1
6.785219083E0,2.186353455E0,9.880353699E0,2.014510803E0,1.031793508E1
6.795171083E0,2.522554321E0,9.901609497E0,2.673141174E0,1.056176286E1
6.805123083E0,2.374512177E0,1.006372238E1,3.295397186E0,1.085248630E1
6.815075083E0,2.459984436E0,9.748328247E0,3.979324951E0,1.081279123E1
6.825027083E0,1.988015900E0,9.729018402E0,4.097129974E0,1.074208920E1
6.834979083E0,1.415007477E0,1.048883835E1,3.835474091E0,1.125739035E1
6.844931083E0,1.476679230E0,1.111064529E1,3.003354492E0,1.160375623E1
6.854883083E0,1.410816193E0,1.150223099E1,2.652035065E0,1.188801960E1
6.864835083E0,1.033899994E0,1.138697067E1,2.947221222E0,1.180754688E1
6.874787083E0,8.214916992E-1,1.099014587E1,3.618275757E0,1.159957216E1
6.884739083E0,1.093027039E0,1.072654404E1,4.225562897E0,1.158053699E1
6.894691083E0,1.685794373E0,1.058104660E1,4.348906403E0,1.156345263E1
6.904643083E0,2.130220184E0,1.057251434E1,4.470753021E0,1.167491028E1
6.914595083E0,2.092049561E0,1.061697189E1,4.641847229E0,1.177469784E1
6.924547083E0,1.342857513E0,1.034723282E1,5.433850250E0,1.176414986E1
6.934499083E0,1.453477478E-1,1.031295410E1,7.303761749E0,1.263815983E1
6.944450083E0,-5.252577209E-1,1.053164932E1,8.412655792E0,1.348941476E1
6.954402083E0,-3.938310242E-1,1.063388672E1,7.859256592E0,1.322885346E1
6.964354083E0,3.957769775E-1,1.096080688E1,6.401438141E0,1.269938334E1
6.974306083E0,1.485510864E0,1.130104935E1,3.927532654E0,1.205595171E1
6.984258083E0,2.283800812E0,1.127425507E1,2.174977112E0,1.170705338E1
6.994210083E0,2.188299408E0,1.106723557E1,2.575095062E0,1.157166677E1
7.004162083E0,2.063459015E0,1.094014984E1,2.755469971E0,1.146897364E1
7.014114083E0,2.629581757E0,1.109627518E1,2.937042389E0,1.177574800E1
7.024066083E0,3.453019409E0,1.123518631E1,3.334016876E0,1.221754570E1
7.034018083E0,3.739373932E0,1.105331451E1,2.315385132E0,1.189620475E1
7.043970083E0,2.907703400E0,1.049422714E1,1.053359528E0,1.094043457E1
7.053922083E0,1.291065216E0,9.887538757E0,2.845283203E0,1.036947002E1
7.063874083E0,1.646575928E-1,9.277706909E0,4.817132721E0,1.045503349E1
7.073826083E0,8.472381592E-2,8.972491608E0,4.500241699E0,1.003817509E1
7.083778083E0,6.741979980E-1,8.465346222E0,3.580554199E0,9.216127059E0
7.093729083E0,1.334924011E0,7.800129547E0,2.413880310E0,8.273503564E0
7.103681083E0,2.029928741E0,6.924749908E0,1.151106262E0,7.307381037E0
7.113633083E0,2.849773865E0,6.406377869E0,5.261558533E-1,7.031339023E0
7.123585083E0,3.666924591E0,6.541846161E0,9.271719360E-1,7.556568993E0
7.133537083E0,3.802542572E0,7.101083221E0,2.487976227E0,8.430583529E0
7.143489083E0,3.816164246E0,7.912396088E0,3.238814850E0,9.362640815E0
7.153441083E0,3.603755951E0,7.583230591E0,4.128414917E0,9.356081064E0
7.163393083E0,2.468666382E0,6.312972107E0,4.554429016E0,8.166440730E0
7.173345083E0,7.677534485E-1,5.014572144E0,5.044809265E0,7.154402817E0
7.183297083E0,-1.454525299E0,4.177812195E0,6.935228119E0,8.226004355E0
7.193249083E0,-3.583697662E0,4.661007385E0,7.157815247E0,9.262947581E0
7.203201083E0,-4.641697540E0,5.510341187E0,6.239924011E0,9.531309863E0
7.213153083E0,-4.946314087E0,6.703360291E0,5.936205597E0,1.022934989E1
7.223105083E0,-4.509522400E0,7.114106140E0,6.584657135E0,1.069130525E1
7.233056083E0,-3.559897156E0,6.563700714E0,8.020471344E0,1.095823870E1
7.243008083E0,-2.721490631E0,6.086792450E0,7.811056824E0,1.026976934E1
7.252960083E0,-2.050735474E0,5.857768707E0,7.244035950E0,9.539131357E0
7.262912083E0,-1.057700500E0,5.870941315E0,6.630910950E0,8.919398090E0
7.272864083E0,2.442919922E-1,6.164929962E0,6.176605682E0,8.730206055E0
7.282816083E0,1.397344208E0,6.708749084E0,5.311554565E0,8.670207438E0
7.292768083E0,2.238295441E0,7.506440277E0,4.778662720E0,9.175632376E0
7.302720083E0,2.990930328E0,8.470884705E0,4.560566254E0,1.007473655E1
7.312672083E0,3.696712646E0,9.952653351E0,3.688779144E0,1.123957671E1
7.322624083E0,3.898343353E0,1.165775757E1,4.167783051E0,1.297963050E1
7.332576083E0,3.388802948E0,1.169907166E1,5.168152771E0,1.323110222E1
7.342528083E0,1.495390320E0,8.880133667E0,4.462370453E0,1.005016001E1
7.352480083E0,-7.952961731E-1,8.572373657E0,4.636458435E0,9.778283742E0
7.362432083E0,-9.328601074E-1,1.225336899E1,8.945098572E0,1.519967329E1
7.372384083E0,1.068328400E0,7.617658997E0,7.130272522E0,1.048860526E1
7.382335083E0,1.121318207E0,4.770280151E0,6.383774872E0,8.047702086E0
7.392287083E0,1.361867981E0,6.210285645E0,6.487359467E0,9.083400521E0
7.402239083E0,2.215393066E0,5.874683533E0,6.308631134E0,8.900488741E0
7.412191083E0,2.882106628E0,6.413562927E0,6.201454010E0,9.375412518E0
7.422143083E0,2.611918488E0,6.457870789E0,5.574557648E0,8.921990040E0
7.432095083E0,2.208208008E0,6.510411530E0,4.554728394E0,8.246647296E0
7.442047083E0,2.475701752E0,8.579708405E0,4.127217407E0,9.837398996E0
7.451999083E0,2.209255829E0,9.529483337E0,4.075275421E0,1.059715687E1
7.461951083E0,1.506317596E0,9.236692200E0,4.200864258E0,1.025830083E1
7.471903083E0,1.026265869E0,8.260422363E0,4.645589447E0,9.532539041E0
7.481855083E0,7.650590515E-1,7.371121674E0,4.866679688E0,8.865851412E0
7.491807083E0,7.300318909E-1,7.037315826E0,5.259163513E0,8.815642998E0
7.501759083E0,9.645941162E-1,7.013365631E0,5.869594116E0,9.196188035E0
7.511711083E0,1.433718567E0,7.527845764E0,6.699618073E0,1.017884537E1
7.521663083E0,2.060016174E0,8.752000122E0,6.921157379E0,1.134652335E1
7.531614083E0,1.948498077E0,8.290060730E0,6.211333466E0,1.054051304E1
7.541566083E0,2.085762634E0,7.452702026E0,5.664221191E0,9.590441855E0
7.551518083E0,2.570754089E0,7.610923004E0,6.009104004E0,1.003216111E1
7.561470083E0,2.719095612E0,7.771539001E0,7.040608978E0,1.083330394E1
7.571422083E0,2.943329315E0,7.816595306E0,7.543114014E0,1.125437331E1
7.581374083E0,3.162473602E0,7.935298462E0,7.278763733E0,1.122277160E1
7.591326375E0,2.944676514E0,8.385711823E0,6.823560333E0,1.120501040E1
7.601278375E0,2.315235443E0,8.587043152E0,6.854096832E0,1.122836892E1
7.611230375E0,1.962119751E0,8.763975220E0,7.366631012E0,1.161569748E1
7.621182375E0,1.609902191E0,8.615034943E0,7.939639435E0,1.182575522E1
7.631134375E0,1.303938446E0,8.400980072E0,8.226892090E0,1.183040469E1
7.641086375E0,1.439257050E0,8.444838867E0,7.978558502E0,1.170658619E1
7.651038375E0,1.666933594E0,8.353678436E0,7.450456696E0,1.131688632E1
7.660990375E0,1.773511963E0,8.358767853E0,7.241491241E0,1.120060445E1
7.670941375E0,1.996099091E0,7.853867798E0,7.266339569E0,1.088427038E1
7.680893375E0,1.939965820E0,7.225624237E0,7.280559998E0,1.043933268E1
7.690845375E0,2.122885437E0,6.990163879E0,7.630083160E0,1.056348440E1
7.700797375E0,2.572849731E0,6.837331696E0,7.862400055E0,1.073247386E1
7.710749375E0,2.536774750E0,6.274202728E0,7.996670837E0,1.047604842E1
7.720701375E0,1.940564575E0,5.766757965E0,7.971373444E0,1.002816448E1
7.730653375E0,1.607058105E0,5.695655823E0,7.897576904E0,9.868883015E0
7.740605375E0,1.647024994E0,6.099216614E0,7.753875732E0,1.000178602E1
7.750557375E0,1.604064331E0,6.349346466E0,7.903714142E0,1.026430320E1
7.760509375E0,1.446142731E0,6.664291534E0,8.127798157E0,1.060967546E1
7.770461375E0,1.439855804E0,6.974147186E0,7.756270752E0,1.052956075E1
7.780413375E0,1.271905060E0,7.261998596E0,7.859555969E0,1.077622318E1
7.790365375E0,5.261558533E-1,7.593858490E0,8.088430023E0,1.110703502E1
7.800317375E0,4.472698975E-1,7.938741302E0,8.212671661E0,1.143116965E1
7.810269375E0,2.450404358E-1,8.393196259E0,7.864795074E0,1.150481594E1
7.820220375E0,2.853067017E-1,8.844807129E0,6.396199036E0,1.091894570E1
7.830172375E0,1.786085815E0,9.202263794E0,7.134463806E0,1.178016703E1
7.840124375E0,3.558999023E0,9.019793243E0,8.695717163E0,1.302453996E1
7.850076375E0,3.791166229E0,8.303233337E0,7.664361877E0,1.191885348E1
7.860028375E0,2.800526276E0,7.622748413E0,7.863747253E0,1.130432491E1
7.869980375E0,3.301983490E0,6.656657410E0,8.449778595E0,1.125224161E1
7.879932375E0,3.635939026E0,6.946604462E0,8.760981445E0,1.175713239E1
7.889884375E0,3.002456360E0,7.489375763E0,8.153843994E0,1.147129746E1
7.899836375E0,2.760260010E0,7.638914795E0,7.427404633E0,1.100628885E1
7.909788375E0,2.766247559E0,7.934400330E0,6.438560944E0,1.058592940E1
7.919740375E0,3.017574921E0,8.347241821E0,6.034102020E0,1.073278117E1
7.929692375E0,3.251538391E0,7.964338074E0,6.495143280E0,1.077914974E1
7.939644375E0,3.107687531E0,7.676037598E0,6.554420013E0,1.056123557E1
7.949596375E0,2.815495148E0,7.554640045E0,6.040388947E0,1.007402093E1
7.959547375E0,2.362836456E0,7.642657013E0,5.529651031E0,9.724723280E0
7.969499375E0,2.032174072E0,7.454348602E0,5.986800385E0,9.774396318E0
7.979451375E0,2.107467499E0,7.075935516E0,6.211333466E0,9.648364945E0
7.989403375E0,2.123184814E0,6.870412903E0,6.170468445E0,9.475503577E0
7.999355375E0,2.269879761E0,6.907386017E0,6.237828369E0,9.579918501E0
8.009307375E0,2.364333344E0,7.256759491E0,6.590794373E0,1.008410635E1
8.019259375E0,2.106120300E0,7.389683075E0,6.089337158E0,9.804243249E0
8.029211375E0,1.932032318E0,7.267237701E0,5.636977844E0,9.397925936E0
8.039163375E0,2.115251312E0,7.254663849E0,5.692063293E0,9.460656437E0
8.049115375E0,2.180814972E0,7.351811829E0,5.587430878E0,9.488122834E0
8.059067375E0,2.005230103E0,7.646548920E0,4.940027161E0,9.321723365E0
8.069019375E0,1.792073364E0,8.007448425E0,4.580774231E0,9.397566163E0
8.078971375E0,1.295555878E0,7.968080292E0,4.651277618E0,9.316820920E0
8.088923375E0,8.493338013E-1,7.796537018E0,4.577481079E0,9.080786883E0
8.098875375E0,7.017407227E-1,7.576195221E0,4.528682556E0,8.854385341E0
8.108826375E0,6.527925110E-1,7.241940308E0,4.580774231E0,8.593912382E0
8.118778375E0,1.036444702E0,6.940766602E0,4.575385437E0,8.377506224E0
8.128730375E0,1.609004059E0,6.740183716E0,4.654720459E0,8.347777736E0
8.138682375E0,2.115550690E0,6.582561493E0,4.776567078E0,8.403645850E0
8.148634375E0,2.396516418E0,6.475234680E0,4.726121979E0,8.367089343E0
8.158586375E0,2.305805054E0,6.498586121E0,4.833598480E0,8.420928261E0
8.168538375E0,1.806144104E0,6.469097443E0,5.324128418E0,8.570748022E0
8.178490375E0,8.825646973E-1,6.333778839E0,5.728886719E0,8.585791627E0
8.188442375E0,-5.897735596E-2,6.116730194E0,6.427933044E0,8.873341525E0
8.198394375E0,-6.807843018E-1,6.419999542E0,6.858288116E0,9.418915929E0
8.208346375E0,-9.225315857E-1,6.890620880E0,6.396348724E0,9.446957057E0
8.218298375E0,-1.119971008E0,7.069498901E0,6.318211212E0,9.547352654E0
8.228250375E0,-1.316362610E0,6.745422821E0,6.229296112E0,9.275649282E0
8.238202375E0,-1.221459961E0,6.827452240E0,6.367608490E0,9.415545996E0
8.248153375E0,-4.788542175E-1,7.919880524E0,6.194867706E0,1.006629002E1
8.258105375E0,3.788621521E-1,8.607400818E0,5.783972168E0,1.037714891E1
8.268057375E0,1.261576538E0,9.064550171E0,5.414690094E0,1.063374412E1
8.278009375E0,1.889969788E0,9.099577332E0,4.717889099E0,1.042270459E1
8.287961375E0,2.129471741E0,8.909772034E0,3.899690552E0,9.956217856E0
8.297913375E0,2.250420227E0,8.480315094E0,3.636088715E0,9.497435255E0
8.307865375E0,2.292033691E0,8.212521973E0,4.270469513E0,9.536028809E0
8.317817375E0,2.169738007E0,7.926915894E0,4.788691864E0,9.511851995E0
8.327769375E0,1.820813599E0,7.864046631E0,4.696633301E0,9.339001870E0
8.337721375E0,1.368903351E0,7.830815735E0,4.587659912E0,9.178354696E0
8.347673375E0,1.104553070E0,7.780071259E0,4.679419098E0,9.145846564E0
8.357625375E0,8.966354370E-1,7.488327942E0,4.924758911E0,9.007344825E0
8.367577375E0,6.533912659E-1,7.565866699E0,4.915029144E0,9.045815085E0
8.377529375E0,6.743476868E-1,7.694598999E0,4.718038788E0,9.051049031E0
8.387480375E0,8.439450073E-1,7.529642029E0,4.104764099E0,8.617240891E0
8.397432375E0,9.273216248E-1,7.403903503E0,3.555705872E0,8.265637104E0
8.407384375E0,1.205443268E0,7.005432129E0,3.604953461E0,7.970248568E0
8.417336375E0,1.523831177E0,7.024891663E0,4.195774841E0,8.323201959E0
8.427288375E0,1.970202942E0,7.364834747E0,5.134622498E0,9.191672246E0
8.437240375E0,2.245929565E0,7.722441101E0,5.690267029E0,9.851874696E0
8.447192375E0,2.305056610E0,7.414232025E0,6.315666504E0,1.000858461E1
8.457144375E0,2.220482483E0,6.963519287E0,6.426585846E0,9.732530450E0
8.467096375E0,2.103575592E0,6.544091492E0,5.952222290E0,9.092805613E0
8.477048375E0,2.012265472E0,6.055208130E0,5.701942749E0,8.557272284E0
8.487000375E0,1.979483643E0,6.021528168E0,5.356610870E0,8.298821421E0
8.496952375E0,2.198178864E0,6.161038055E0,5.456752625E0,8.518599030E0
8.506904375E0,2.569107513E0,6.526877289E0,5.836363220E0,9.124887736E0
8.516856375E0,2.951711884E0,6.998396759E0,6.330036621E0,9.887341597E0
8.526808375E0,3.186423798E0,7.320826263E0,6.887776794E0,1.054463195E1
8.536759375E0,3.162623291E0,7.614665222E0,7.216044159E0,1.095703454E1
8.546711375E0,2.924618225E0,7.587122498E0,7.323221283E0,1.094291504E1
8.556663375E0,2.463576965E0,7.086114349E0,7.516619110E0,1.061987716E1
8.566615375E0,2.137554932E0,6.890471191E0,7.767198029E0,1.060080655E1
8.576567375E0,1.861079865E0,6.643484802E0,7.898325348E0,1.048728048E1
8.586519583E0,1.646725616E0,6.480623474E0,7.913144531E0,1.035992482E1
8.596471583E0,1.754950562E0,6.814579010E0,7.978558502E0,1.063840845E1
8.606423583E0,1.933978271E0,6.956334229E0,8.013885040E0,1.078671457E1
8.616375583E0,2.281705170E0,7.586523743E0,8.038134613E0,1.128597045E1
8.626327583E0,2.526745605E0,8.337961121E0,7.539970551E0,1.152203085E1
8.636279583E0,2.465971985E0,8.141270142E0,7.100484467E0,1.108053144E1
8.646231583E0,2.563569031E0,8.021519165E0,7.259154510E0,1.111809247E1
8.656183583E0,2.178270264E0,6.760691071E0,7.220983887E0,1.012889004E1
8.666135583E0,2.499651947E0,5.460494843E0,7.094796295E0,9.295235245E0
8.676086583E0,2.892884216E0,4.950954437E0,6.817273407E0,8.908195420E0
8.686038583E0,3.027903442E0,5.038073273E0,6.653364258E0,8.877929798E0
8.695990583E0,3.179987183E0,5.652994537E0,6.623426514E0,9.270299051E0
8.705942583E0,3.595822449E0,6.596183167E0,6.644832001E0,1.002962431E1
8.715894583E0,3.661984863E0,7.186256104E0,6.753805389E0,1.051980500E1
8.725846583E0,3.491788788E0,7.305558014E0,6.574029236E0,1.042984311E1
8.735798583E0,3.488196259E0,7.055428162E0,6.554270325E0,1.024231610E1
8.745750583E0,3.643872528E0,6.777306519E0,6.819369049E0,1.028170632E1
8.755702583E0,3.743714905E0,6.644233246E0,6.456224213E0,9.992200348E0
8.765654583E0,3.431015167E0,6.486461334E0,5.679489441E0,9.279151148E0
8.775606583E0,3.911665649E0,6.944059753E0,6.132597198E0,1.005633345E1
8.785558583E0,4.152215424E0,6.927743683E0,6.836283875E0,1.058155483E1
8.795510583E0,3.181783447E0,6.302044830E0,8.511450348E0,1.105822327E1
8.805462583E0,2.867886200E0,6.690786438E0,1.045246399E1,1.273755855E1
8.815413583E0,3.382066956E0,7.770640869E0,8.639583893E0,1.210221658E1
8.825365583E0,3.762276306E0,8.117619324E0,6.521338806E0,1.107150967E1
8.835317583E0,3.305126953E0,7.549251251E0,7.707771606E0,1.128382922E1
8.845269583E0,2.854114838E0,7.073690186E0,8.840765533E0,1.167656626E1
8.855221583E0,2.683769073E0,6.812932434E0,8.606352997E0,1.129991047E1
8.865173583E0,2.930156708E0,6.642736359E0,8.567134552E0,1.122976220E1
8.875125583E0,2.959346008E0,6.691684570E0,8.200846252E0,1.099046179E1
8.885077583E0,2.773282928E0,6.786437531E0,7.391778717E0,1.041082250E1
8.895029583E0,2.276615753E0,6.685397644E0,7.133266296E0,1.003797833E1
8.904981583E0,1.706900482E0,6.499484253E0,7.215894470E0,9.860321385E0
8.914933583E0,1.443747711E0,6.302643585E0,7.363038483E0,9.799084616E0
8.924885583E0,1.533111877E0,6.165678406E0,7.771089935E0,1.003772190E1
8.934837583E0,1.703757019E0,6.101012878E0,8.208779755E0,1.036866487E1
8.944789583E0,1.881736908E0,6.204747162E0,8.089926910E0,1.036758113E1
8.954740583E0,1.979333954E0,6.638096008E0,7.594756622E0,1.027922223E1
8.964692583E0,1.996697845E0,7.172035675E0,7.181016998E0,1.034368905E1
8.974644583E0,2.084864502E0,7.369774475E0,6.952292633E0,1.034381983E1
8.984596583E0,2.407144318E0,7.049440613E0,6.839127960E0,1.011249860E1
8.994548583E0,2.898422699E0,6.384822693E0,6.834337921E0,9.791577492E0
9.004500583E0,2.962040405E0,5.914500732E0,6.374194794E0,9.186150529E0
9.014452583E0,2.876867523E0,6.016887817E0,5.666167145E0,8.751271671E0
9.024404583E0,2.553988953E0,6.276148682E0,6.204148407E0,9.187184514E0
9.034356583E0,2.373314667E0,6.665938110E0,6.429130554E0,9.560390844E0
9.044308583E0,2.327210541E0,6.950047302E0,6.958878937E0,1.010668405E1
9.054260583E0,2.279609528E0,7.078180847E0,7.858508148E0,1.081912261E1
9.064212583E0,2.206711121E0,7.019353180E0,8.637488251E0,1.134667777E1
9.074164583E0,2.193388824E0,7.224875793E0,9.170380096E0,1.187879017E1
9.084116583E0,2.348765717E0,7.837551727E0,8.562643890E0,1.184325917E1
9.094067583E0,2.453398132E0,8.264913025E0,7.829767914E0,1.164616741E1
9.104019583E0,2.497705994E0,8.153694305E0,7.390880585E0,1.128478542E1
9.113971583E0,2.536625061E0,7.973618774E0,6.831194458E0,1.080177211E1
9.123923583E0,2.687660980E0,8.032296753E0,6.568341064E0,1.071841486E1
9.133875583E0,3.137924652E0,8.162825317E0,6.200406189E0,1.072022972E1
9.143827583E0,3.663332062E0,8.078999634E0,5.900879059E0,1.065413584E1
9.153779583E0,3.891757050E0,7.886499939E0,5.559888153E0,1.040456681E1
9.163731583E0,3.751349030E0,7.711064758E0,5.143005066E0,9.999181984E0
9.173683583E0,3.266507263E0,7.463329926E0,5.138215027E0,9.631854284E0
9.183635583E0,2.597099304E0,7.111561432E0,5.195994873E0,9.182461191E0
9.193587583E0,1.976789246E0,6.806645508E0,4.905000000E0,8.619579096E0
9.203539583E0,1.536554718E0,6.687044220E0,4.746928711E0,8.343314269E0
9.213491583E0,1.268761597E0,6.741830292E0,4.594096527E0,8.256376601E0
9.223443583E0,1.379531250E0,7.014712830E0,4.457730103E0,8.425002090E0
9.233394583E0,1.704505463E0,7.115902405E0,4.290378113E0,8.482260917E0
9.243346583E0,1.762584686E0,7.146289215E0,3.953578491E0,8.355054590E0
9.253298583E0,1.744472351E0,7.463030548E0,3.720812531E0,8.519651086E0
9.263250583E0,1.759740601E0,8.047265625E0,3.522325287E0,8.958903194E0
9.273202583E0,1.548080750E0,8.334967346E0,3.207679596E0,9.064074308E0
9.283154583E0,1.339564362E0,8.390950928E0,2.924917603E0,8.986525087E0
9.293106583E0,1.088087311E0,8.340356140E0,2.997217255E0,8.929097704E0
9.303058583E0,7.054829407E-1,8.014034729E0,3.387455750E0,8.729107358E0
9.313010583E0,4.210743713E-1,7.625143433E0,4.009711761E0,8.625421984E0
9.322962583E0,3.323089600E-2,7.319778442E0,4.841082916E0,8.775895655E0
9.332914583E0,-4.698728943E-1,7.071444855E0,5.729784851E0,9.113536488E0
9.342866583E0,-9.166937256E-1,7.201524353E0,6.010600891E0,9.424945807E0
9.352818583E0,-1.321302338E0,7.753875732E0,6.114185486E0,9.962514386E0
9.362769583E0,-1.817071381E0,8.151898041E0,6.224506073E0,1.041631729E1
9.372721583E0,-2.087259521E0,8.264463959E0,6.309978333E0,1.060536861E1
9.382673583E0,-1.785636749E0,8.690328369E0,6.713539124E0,1.112573204E1
9.392625583E0,-1.138682098E0,9.210047607E0,6.176605682E0,1.114773661E1
9.402577583E0,-4.802014160E-1,9.497599640E0,5.073998566E0,1.077870371E1
9.412529583E0,1.122665405E-1,9.566905518E0,4.626578979E0,1.062748879E1
9.422481583E0,7.785310364E-1,9.549841003E0,4.844825134E0,1.073675483E1
9.432433583E0,1.195114746E0,9.429790649E0,4.873715057E0,1.068187013E1
9.442385583E0,1.169967041E0,9.150172119E0,4.532724152E0,1.027813509E1
9.452337583E0,1.033151550E0,8.909322968E0,4.573289795E0,1.006769176E1
9.462289583E0,9.452842712E-1,8.313262482E0,4.230951691E0,9.375758511E0
9.472241583E0,4.501139832E-1,7.851023712E0,3.760929108E0,8.716981340E0
9.482193583E0,-1.844165039E-1,7.763605499E0,4.055965576E0,8.761189220E0
9.492145583E0,-5.673202515E-1,7.742499390E0,4.359833679E0,8.903723871E0
9.502096583E0,-6.388714600E-1,7.829618225E0,3.956871643E0,8.795903108E0
9.512048583E0,-4.942721558E-1,7.716303864E0,3.795806580E0,8.613582174E0
9.522000583E0,-1.219963074E-1,7.481292572E0,3.584595795E0,8.296622726E0
9.531952583E0,3.556604004E-1,7.349865875E0,3.535497894E0,8.163747183E0
9.541904583E0,7.840695190E-1,7.117548981E0,3.511098633E0,7.975091355E0
9.551856583E0,1.080004120E0,6.922953644E0,3.534001007E0,7.847474700E0
9.561808583E0,1.273401947E0,6.965315552E0,3.677103424E0,7.978612840E0
9.571760583E0,1.391356659E0,7.106621704E0,3.936064911E0,8.242120624E0
9.581712583E0,1.414408722E0,7.304959259E0,4.196373596E0,8.542396219E0
9.591664333E0,1.380728760E0,7.431895294E0,4.409081268E0,8.750970072E0
9.601616333E0,1.454824677E0,7.520061951E0,4.450844421E0,8.858773202E0
9.611568333E0,1.715582428E0,7.338190155E0,4.639302521E0,8.849598053E0
9.621520333E0,2.070045319E0,7.134613495E0,4.673730927E0,8.776762394E0
9.631472333E0,2.423909454E0,7.004234619E0,5.123395844E0,9.010206691E0
9.641423333E0,2.708467712E0,6.890471191E0,5.994434509E0,9.526155346E0
9.651375333E0,2.872676239E0,6.908433838E0,6.243217163E0,9.744561940E0
9.661327333E0,2.894979858E0,6.781198425E0,6.152356110E0,9.602970695E0
9.671279333E0,2.841540985E0,6.677015076E0,6.256389771E0,9.581195043E0
9.681231333E0,2.797532501E0,6.871610413E0,6.884483643E0,1.012133058E1
9.691183333E0,2.860551453E0,7.228468323E0,7.729476471E0,1.096258708E1
9.701135333E0,2.834954681E0,7.714806976E0,8.292006683E0,1.167529826E1
9.711087333E0,2.420017548E0,7.791297913E0,7.959697723E0,1.139814002E1
9.721039333E0,2.019300842E0,7.219786377E0,7.705376587E0,1.075061485E1
9.730991333E0,1.459614716E0,6.733597412E0,7.085515594E0,9.883134142E0
9.740943333E0,1.092278595E0,6.796167297E0,6.494544525E0,9.463618285E0
9.750895333E0,1.006357269E0,7.062014465E0,6.152954865E0,9.420385174E0
9.760847333E0,1.330583038E0,7.564968567E0,6.140381012E0,9.833792738E0
9.770798333E0,1.835483093E0,7.582482147E0,6.411916351E0,1.009830208E1
9.780750333E0,2.176923065E0,6.804549866E0,6.554120636E0,9.695225125E0
9.790702333E0,2.081421661E0,5.802533569E0,6.580914917E0,9.017214265E0
9.800654333E0,1.434766388E0,5.484744415E0,6.819219360E0,8.868073555E0
9.810606333E0,7.638615417E-1,6.078110504E0,7.422165527E0,9.623692268E0
9.820558333E0,3.986210632E-1,6.959627380E0,8.007298737E0,1.061659762E1
9.830510333E0,2.712359619E-1,7.549101563E0,7.937394104E0,1.095740519E1
9.840462333E0,4.237687683E-1,7.645800476E0,7.650740204E0,1.082458639E1
9.850414333E0,9.014254761E-1,7.363487549E0,7.190896454E0,1.033162662E1
9.860366333E0,1.808389435E0,7.092251587E0,6.182144165E0,9.580668630E0
9.870318333E0,2.999312897E0,6.920858002E0,5.060077515E0,9.082870570E0
9.880270333E0,3.966152344E0,6.437363434E0,4.074526978E0,8.589050150E0
9.890222333E0,4.641697540E0,5.942642212E0,2.491119690E0,7.941412332E0
9.900174333E0,5.151387634E0,6.190377045E0,1.204844513E0,8.143046900E0
9.910125333E0,5.308261414E0,7.143295441E0,2.972518616E0,9.382972658E0
9.920077333E0,4.411625977E0,6.470294952E0,7.378905487E0,1.075989808E1
9.930029333E0,1.891766052E0,4.177961884E0,1.523696457E1,1.591223534E1
9.939981333E0,1.609602814E0,6.283034363E0,1.666259995E1,1.788042446E1
9.949933333E0,2.533631287E0,1.047342041E1,1.003992188E1,1.472792768E1
9.959885333E0,7.409591675E-1,8.525371399E0,7.198231201E0,1.118237499E1
9.969837333E0,-4.342469788E-1,7.081324310E0,1.051817734E1,1.268722897E1
9.979789333E0,5.465135193E-1,7.535330200E0,9.844578094E0,1.240949621E1
9.989741333E0,2.404300232E0,7.750432892E0,7.857460327E0,1.129555454E1
9.999693333E0,3.131637726E0,7.549700317E0,7.216493225E0,1.090334372E1
1.000964533E1,2.974165192E0,6.873855743E0,7.630831604E0,1.069229360E1
1.001959733E1,3.435356140E0,7.104975128E0,7.390581207E0,1.081217064E1
1.002954933E1,3.745211792E0,7.674690399E0,7.414830780E0,1.130960652E1
1.003950033E1,3.293900299E0,7.426207123E0,6.904392242E0,1.066156478E1
1.004945233E1,2.506837006E0,7.050039368E0,6.547534332E0,9.942710530E0
1.005940433E1,1.881138153E0,6.834637299E0,6.606811066E0,9.690247686E0
1.006935633E1,1.773661652E0,6.889573059E0,7.192243652E0,1.011634624E1
1.007930833E1,2.416874084E0,7.525151367E0,7.792794800E0,1.109940693E1
1.008926033E1,3.089724884E0,7.786956940E0,7.925419006E0,1.153236163E1
1.009921233E1,2.861299896E0,6.791976013E0,6.745123444E0,9.990728979E0
1.010916433E1,2.445314941E0,6.200855255E0,6.498735809E0,9.309336076E0
1.011911633E1,2.354154510E0,6.417454834E0,7.011719055E0,9.792342626E0
1.012906833E1,2.477498016E0,7.014413452E0,7.731871490E0,1.072948411E1
1.013902033E1,2.396516418E0,7.173083496E0,8.289611664E0,1.122114430E1
1.014897233E1,1.992057495E0,7.225923615E0,8.930728455E0,1.165933857E1
1.015892433E1,1.419797516E0,7.111860809E0,9.542955322E0,1.198592447E1
1.016887633E1,7.975415039E-1,6.870263214E0,9.807006226E0,1.200058166E1
1.017882733E1,6.405180359E-1,7.579188995E0,1.001058289E1,1.257243568E1
1.018877933E1,1.200503540E0,8.811875610E0,9.556726685E0,1.305455420E1
1.019873133E1,3.082988892E0,9.836195526E0,9.267827454E0,1.386175273E1
1.020868333E1,4.565206604E0,1.038046371E1,7.828720093E0,1.377984022E1
1.021863533E1,3.781586151E0,1.012075378E1,6.517895966E0,1.261796413E1
1.022858733E1,3.645219727E0,9.555978241E0,7.241341553E0,1.253161500E1
1.023853933E1,3.957021332E0,9.081464996E0,6.755002899E0,1.199004122E1
1.024849133E1,4.317022705E0,8.155939636E0,5.735922089E0,1.086539638E1
1.025844333E1,4.393214264E0,7.570956116E0,4.531376953E0,9.856626460E0
1.026839533E1,4.180656281E0,7.432943115E0,3.404220886E0,9.182333589E0
1.027834733E1,3.611390076E0,7.537725220E0,3.731290741E0,9.153249170E0
1.028829933E1,2.891387329E0,7.781568146E0,4.349804535E0,9.371964735E0
1.029825133E1,2.056273956E0,7.834108887E0,4.449796600E0,9.241331853E0
1.030820233E1,1.388811951E0,7.638465729E0,4.325405273E0,8.887299258E0
1.031815433E1,1.117725677E0,7.430099030E0,4.310885468E0,8.662529411E0
1.032810633E1,1.094374237E0,7.038663025E0,4.018543396E0,8.178577087E0
1.033805833E1,1.094074860E0,6.937174072E0,3.479813690E0,7.837760345E0
1.034801033E1,1.182091827E0,7.435188446E0,3.260519714E0,8.204288947E0
1.035796233E1,1.280736694E0,8.006999359E0,4.638254700E0,9.341612916E0
1.036791433E1,8.904981995E-1,8.200397186E0,6.682403870E0,1.061574409E1
1.037786633E1,2.323168945E-1,8.016878815E0,7.756869507E0,1.115765843E1
1.038781833E1,1.571731567E-1,8.125702515E0,6.378835144E0,1.033156728E1
1.039777033E1,2.168989563E-1,8.746162262E0,5.050198059E0,1.010182656E1
1.040772233E1,-1.182540894E-2,8.920399933E0,5.156926117E0,1.030376445E1
1.041767433E1,-2.986289978E-1,8.665180664E0,5.796546021E0,1.042950051E1
1.042762633E1,-2.330653381E-1,8.674611053E0,6.012696533E0,1.055725892E1
1.043757733E1,-2.914439392E-1,8.879235535E0,5.592370605E0,1.049763651E1
1.044752933E1,-3.808081055E-1,9.370663605E0,5.079087982E0,1.066543417E1
1.045748133E1,-1.318757629E-1,9.658365326E0,5.073549500E0,1.091065152E1
1.046743333E1,5.813909912E-1,9.611812134E0,4.871320038E0,1.079141821E1
1.047738533E1,7.518864441E-1,9.144633636E0,4.611909485E0,1.026934110E1
1.048733733E1,9.009764099E-1,9.448801117E0,5.605094147E0,1.102309763E1
1.049728933E1,1.119072876E0,9.947863312E0,5.859564972E0,1.159943146E1
1.050724133E1,7.939489746E-1,9.505533142E0,4.395758972E0,1.050277165E1
1.051719333E1,4.929249573E-1,9.039103088E0,4.229454803E0,9.991829041E0
1.052714533E1,3.849993896E-1,8.506211243E0,3.558100891E0,9.228430863E0
1.053709733E1,5.255570984E-1,7.796087952E0,2.789748688E0,8.296860572E0
1.054704933E1,8.836125183E-1,7.103029175E0,3.095862122E0,7.798599670E0
1.055700133E1,1.217867432E0,6.438860321E0,3.124752045E0,7.259903488E0
1.056695333E1,1.511706390E0,6.148613892E0,2.767894135E0,6.910278355E0
1.057690433E1,1.522184601E0,6.051016846E0,2.677332458E0,6.789695127E0
1.058685646E1,1.472787323E0,5.996829529E0,1.937720490E0,6.471926111E0
1.059680846E1,1.413211212E0,6.045178986E0,1.144519958E0,6.312787089E0
1.060676046E1,1.427731018E0,6.005212097E0,1.131946106E0,6.275531067E0
1.061671246E1,1.749412079E0,5.868396606E0,2.242786102E0,6.521396388E0
1.062666446E1,2.629881134E0,5.846691742E0,3.972738647E0,7.542064138E0
1.063661646E1,3.362607422E0,6.067183228E0,4.280798035E0,8.151262037E0
1.064656846E1,4.001628571E0,6.698719940E0,4.433630219E0,8.974572801E0
1.065652046E1,4.900359650E0,7.250023499E0,5.456602936E0,1.031265635E1
1.066647246E1,5.220244446E0,7.332052917E0,6.933731232E0,1.136162756E1
1.067642446E1,5.089266815E0,7.014712830E0,7.190447388E0,1.126096650E1
1.068637646E1,4.723577271E0,6.855294342E0,7.342980194E0,1.110074776E1
1.069632846E1,4.277804260E0,6.887926483E0,7.566914520E0,1.109059673E1
1.070627946E1,3.490591278E0,6.739884338E0,7.755821686E0,1.085186797E1
1.071623146E1,2.420616302E0,6.259682922E0,8.366401978E0,1.072565595E1
1.072618346E1,1.564546509E0,5.765410767E0,9.364226990E0,1.110749811E1
1.073613546E1,1.002465363E0,6.443800049E0,1.065589096E1,1.249301837E1
1.074608746E1,1.263372803E-1,8.219257965E0,1.068882248E1,1.348417920E1
1.075603946E1,-9.642947388E-1,6.533463593E0,7.919132080E0,1.031157911E1
1.076599146E1,-8.910969543E-1,7.470664673E0,8.942703552E0,1.168660906E1
1.077594346E1,-6.716532898E-1,7.215894470E0,8.301586761E0,1.101982731E1
1.078589546E1,-2.115101624E-1,7.263196106E0,7.277266846E0,1.028384009E1
1.079584746E1,3.210823059E-1,7.087311859E0,6.393654327E0,9.550492076E0
1.080579946E1,8.888516235E-1,7.313940582E0,6.888076172E0,1.008609822E1
1.081575146E1,1.143771515E0,7.110363922E0,7.491920471E0,1.039203352E1
1.082570346E1,1.745819550E0,7.241491241E0,7.672894135E0,1.069394154E1
1.083565546E1,2.342478790E0,7.277865601E0,6.321654053E0,9.920576825E0
1.084560646E1,2.436782684E0,6.703210602E0,4.531526642E0,8.450187923E0
1.085555846E1,3.387904816E0,6.915618896E0,7.179370422E0,1.052839225E1
1.086551046E1,2.895728302E0,6.474486237E0,1.059856018E1,1.275279155E1
1.087546246E1,1.199006653E0,6.508315887E0,1.335792206E1,1.490737651E1
1.088541446E1,-7.155120850E-1,7.614515533E0,1.636666534E1,1.806545153E1
1.089536646E1,-1.672172699E0,7.750881958E0,1.479448471E1,1.678538384E1
1.090531846E1,-1.664388885E0,7.266189880E0,1.158411072E1,1.377531585E1
1.091527046E1,-1.398691406E0,6.763235779E0,9.783804474E0,1.197583090E1
1.092522246E1,-7.714956665E-1,5.899082794E0,8.708740082E0,1.054687334E1
1.093517446E1,3.234773254E-1,5.480403442E0,7.436835022E0,9.243699185E0
1.094512646E1,1.398541718E0,5.602998505E0,6.796766052E0,8.918830638E0
1.095507846E1,2.189047852E0,6.363417206E0,6.584058380E0,9.414607468E0
1.096502946E1,2.503693542E0,6.376290436E0,6.646927643E0,9.545009595E0
1.097498146E1,3.733236694E0,6.482270050E0,6.758745117E0,1.008154337E1
1.098493346E1,4.823569336E0,6.715634766E0,7.253166962E0,1.099886369E1
1.099488546E1,4.328848114E0,5.944737854E0,7.685318298E0,1.063686756E1
1.100483746E1,3.792962494E0,5.926625519E0,7.577692108E0,1.034083518E1
1.101478946E1,3.033741302E0,5.343288574E0,7.364086304E0,9.590833445E0
1.102474146E1,2.888692932E0,5.314548340E0,7.714806976E0,9.803428869E0
1.103469346E1,2.499352570E0,4.852309570E0,9.348210297E0,1.082500380E1
1.104464546E1,1.750759277E0,4.530329132E0,1.116423386E1,1.217493974E1
1.105459746E1,5.249583435E-1,4.115691376E0,1.278371613E1,1.344015977E1
1.106454946E1,8.038284302E-2,4.118236084E0,1.322350159E1,1.385017415E1
1.107450146E1,8.391549683E-1,5.027744751E0,1.247820145E1,1.347916576E1
1.108445346E1,1.413061523E-1,4.286037140E0,1.186657333E1,1.261767191E1
1.109440446E1,9.846524048E-1,4.714895325E0,1.030936157E1,1.137904716E1
1.110435646E1,3.267405396E0,6.340065765E0,8.104147339E0,1.079581289E1
1.111430846E1,4.215084686E0,7.700137482E0,6.558910675E0,1.095802744E1
1.112426046E1,3.603306885E0,7.491770782E0,5.721551971E0,1.009190799E1
1.113421246E1,2.384391632E0,6.966363373E0,5.446723480E0,9.158730194E0
1.114416446E1,9.069639587E-1,6.813980255E0,6.219416656E0,9.270062248E0
1.115411646E1,-3.409909058E-1,7.497159576E0,7.079078979E0,1.031683264E1
1.116406846E1,-1.037342834E0,7.270231476E0,7.582482147E0,1.055586952E1
1.117402046E1,-1.409468994E0,7.179819489E0,6.359824677E0,9.694523230E0
1.118397246E1,-7.454498291E-1,7.652686157E0,5.400469666E0,9.395976451E0
1.119392446E1,-4.773573303E-1,7.788603516E0,5.469326477E0,9.529100002E0
1.120387646E1,4.501139832E-1,7.280709686E0,6.152805176E0,9.542973733E0
1.121382846E1,2.129322052E0,7.469167786E0,5.507347412E0,9.521205561E0
1.122377946E1,3.131488037E0,8.152496796E0,4.424050140E0,9.789874411E0
1.123373146E1,3.611839142E0,9.678722992E0,4.141288147E0,1.112983954E1
1.124368346E1,3.113226013E0,9.685159607E0,3.276536407E0,1.068785215E1
1.125363546E1,1.784738617E0,8.981921997E0,3.395838318E0,9.766879367E0
1.126358746E1,4.068539429E-1,8.367300110E0,3.626658325E0,9.128520793E0
1.127353946E1,1.131646729E-1,8.132288818E0,5.311255188E0,9.713720160E0
1.128349146E1,5.418731689E-2,7.116800537E0,6.998097382E0,9.981240059E0
1.129344346E1,1.607656860E0,7.826025696E0,5.630391541E0,9.774075285E0
1.130339546E1,3.240162048E0,7.604785767E0,5.818550262E0,1.010875580E1
1.131334746E1,3.363505554E0,7.473508759E0,6.215524750E0,1.028587627E1
1.132329946E1,3.041974182E0,7.284152527E0,6.674769745E0,1.033755465E1
1.133325146E1,2.057920532E0,6.614295502E0,7.600444794E0,1.028351608E1
1.134320346E1,1.255888367E0,6.757846985E0,7.665709076E0,1.029605979E1
1.135315446E1,1.525178375E0,7.063511353E0,8.798703003E0,1.138580415E1
1.136310646E1,2.034419403E0,7.601043549E0,7.873027954E0,1.113100600E1
1.137305846E1,1.916913757E0,8.006699982E0,6.382876740E0,1.041743339E1
1.138301046E1,9.189390564E-1,9.116192780E0,6.201004944E0,1.106353841E1
1.139296246E1,-9.135502625E-1,1.035217255E1,5.094954987E0,1.157413568E1
1.140291446E1,-1.483714600E0,1.096499817E1,4.564607849E0,1.196947111E1
1.141286646E1,-4.842430115E-1,1.051802765E1,4.263883209E0,1.135975779E1
1.142281846E1,-1.167572021E-2,9.259594574E0,3.611090698E0,9.938823071E0
1.143277046E1,9.680369568E-1,8.567134552E0,3.095562744E0,9.160534847E0
1.144272246E1,2.267484741E0,6.386319580E0,3.465293884E0,7.611493056E0
1.145267446E1,3.306324463E0,3.771706696E0,2.257605286E0,5.500394029E0
1.146262646E1,4.440665588E0,3.185825043E0,7.993377686E-1,5.523398676E0
1.147257746E1,4.576133881E0,3.796555023E0,1.139131165E-1,5.947083952E0
1.148252946E1,4.246369629E0,4.688699799E0,2.953358459E-1,6.332675903E0
1.149248146E1,3.430266724E0,6.054459686E0,1.520987091E0,7.122963823E0
1.150243346E1,1.845362549E0,8.473279724E0,4.065994720E0,9.577794385E0
1.151238546E1,5.134323120E-1,9.770332489E0,7.370971985E0,1.224966276E1
1.152233746E1,-1.059796143E0,6.340514832E0,2.711311798E0,6.976855155E0
1.153228946E1,1.468446350E-1,5.166955261E0,6.103407898E0,7.998160913E0
1.154224146E1,1.297052765E0,3.788920898E0,9.594597931E0,1.039685418E1
1.155219346E1,1.893712006E0,3.144061890E0,9.452243958E0,1.013983166E1
1.156214546E1,2.659369812E0,1.885778503E0,1.203632034E1,1.247002068E1
1.157209746E1,2.369572449E0,2.376158752E0,1.356718689E1,1.397603535E1
1.158204946E1,1.679357758E0,1.618434448E0,1.433164719E1,1.452018194E1
1.159200138E1,1.326990509E0,2.935844879E0,1.289628204E1,1.329263629E1
1.160195238E1,1.643282776E0,4.405937805E0,1.181268539E1,1.271425194E1
1.161190438E1,2.360291748E0,5.216502228E0,1.171389084E1,1.303833238E1
1.162185638E1,3.142115936E0,7.192992096E0,1.149639313E1,1.392045555E1
1.163180838E1,2.913092194E0,8.634494476E0,1.150268005E1,1.467488499E1
1.164176038E1,1.893861694E0,8.585695953E0,1.050485504E1,1.369864470E1
1.165171237E1,1.700613556E0,7.979606323E0,9.532028046E0,1.254694234E1
1.166166437E1,1.717378693E0,6.620582428E0,9.350305939E0,1.158489199E1
1.167161637E1,1.654958496E0,4.807852020E0,9.972711639E0,1.119416393E1
1.168156837E1,1.819017334E0,4.550986176E0,9.744885406E0,1.090793706E1
1.169152037E1,7.506889343E-1,4.018094330E0,8.749754791E0,9.657475075E0
1.170147237E1,6.233038330E-1,4.636757812E0,7.986342316E0,9.255792471E0
1.171142437E1,1.138981476E0,4.925207977E0,9.294771423E0,1.058053535E1
1.172137637E1,3.516188049E-1,5.116061096E0,1.100032471E1,1.213692138E1
1.173132738E1,-3.306623840E-1,5.487438812E0,1.128892456E1,1.255631873E1
1.174127938E1,-4.029620361E-1,5.456303558E0,1.109492798E1,1.237057209E1
1.175123138E1,-1.260379028E-1,5.428760834E0,1.052581146E1,1.184398736E1
1.176118338E1,1.686991882E-1,4.498445435E0,1.004276596E1,1.100552674E1
1.177113538E1,2.043251038E-1,3.763024750E0,1.056473053E1,1.121675689E1
1.178108738E1,-5.041516113E-1,3.396586761E0,1.085871918E1,1.138871163E1
1.179103938E1,-1.570534058E0,3.446433105E0,8.297545166E0,9.121059925E0
1.180099137E1,-7.689509583E-1,4.046086121E0,6.919211426E0,8.052178912E0
1.181094337E1,-3.622467041E-1,3.329675903E0,6.217021637E0,7.061821460E0
1.182089537E1,-1.172062683E-1,3.125500488E0,7.415279846E0,8.047910649E0
1.183084737E1,1.713935852E-1,2.448009338E0,7.523804169E0,7.913896300E0
1.184079937E1,2.859353943E0,1.706900482E0,9.624984741E0,1.018478009E1
1.185075137E1,3.722908173E0,2.047592010E0,1.101200043E1,1.180325513E1
1.186070237E1,3.418740692E0,1.382075958E0,1.385907990E1,1.434126973E1
1.187065437E1,3.550466766E0,1.899849243E0,1.413121399E1,1.469375548E1
1.188060638E1,4.345762939E0,2.103276215E0,1.376567413E1,1.458777607E1
1.189055838E1,4.548740845E0,3.574866028E0,1.238090378E1,1.366592437E1
1.190051038E1,3.675307159E0,3.594175873E0,1.032403107E1,1.153306552E1
1.191046238E1,2.477498016E0,3.573219452E0,7.927514648E0,9.041647094E0
1.192041438E1,6.295907593E-1,1.553319855E0,6.827152863E0,7.029879324E0
1.193036638E1,1.322350159E0,2.385140076E0,5.232668610E0,5.900705373E0
1.194031838E1,2.212848358E0,2.379302216E0,4.214785309E0,5.321859834E0
1.195027038E1,3.276686096E0,3.271746368E0,6.239325256E0,7.769824691E0
1.196022237E1,4.339176636E0,3.204835510E0,6.952142944E0,8.799529308E0
1.197017437E1,3.019670563E0,2.375859375E0,7.074887695E0,8.050910134E0
1.198012637E1,1.589694214E0,2.545905762E0,7.286846924E0,7.880793230E0
1.199007737E1,-9.638456726E-1,3.398682404E0,7.924371185E0,8.676156940E0
1.200002937E1,-2.563569031E0,3.801345062E0,9.488019562E0,1.053777138E1
1.200998137E1,-2.027982788E0,4.202061768E0,9.645043030E0,1.071433117E1
1.201993337E1,-2.016756134E0,4.326303406E0,8.926686859E0,1.012274393E1
1.202988537E1,-8.454418945E-1,4.300257568E0,7.331304474E0,8.541370642E0
1.203983738E1,1.260379028E-1,4.662354584E0,6.206244049E0,7.763433584E0
1.204978938E1,-1.341210938E-1,4.364623718E0,5.475463715E0,7.003472821E0
1.205974138E1,-7.427554321E-1,3.236419830E0,6.086193695E0,6.933098344E0
1.206969338E1,-1.245110779E0,3.107088776E0,8.076155548E0,8.742344648E0
1.207964538E1,-2.682870941E0,3.325334930E0,9.307045898E0,1.024093513E1
1.208959738E1,-3.794609070E0,4.255800018E0,9.476493530E0,1.105960313E1
1.209954938E1,-3.509002991E0,5.749394073E0,8.416248322E0,1.077969712E1
1.210950037E1,-2.356848907E0,6.356681213E0,7.876171417E0,1.039212245E1
1.211945237E1,-6.824308777E-1,6.681805115E0,8.535101166E0,1.086094763E1
1.212940437E1,-9.512718201E-1,6.506669312E0,8.963809662E0,1.111717353E1
1.213935637E1,-2.256108398E0,6.072721710E0,9.439520416E0,1.144869074E1
1.214930837E1,-6.345304871E-1,5.811065826E0,1.018661682E1,1.174471274E1
1.215926037E1,1.077758789E-1,5.178481293E0,1.011955627E1,1.136810025E1
1.216921237E1,7.505392456E-1,4.667893066E0,9.573192444E0,1.067701027E1
1.217916437E1,1.365310822E0,4.497696991E0,1.051802765E1,1.152051464E1
1.218911638E1,1.858834534E0,4.193978577E0,1.142618912E1,1.231269751E1
1.219906838E1,2.039209442E0,3.887715454E0,1.143726608E1,1.225086781E1
1.220902038E1,2.580483856E0,4.037404175E0,1.090452393E1,1.191084260E1
1.221897238E1,3.236270142E0,4.111949158E0,1.037941589E1,1.162384810E1
1.222892338E1,3.557202759E0,4.158202972E0,9.731413422E0,1.116444135E1
1.223887538E1,4.889432373E0,4.395609283E0,7.825277252E0,1.022070907E1
1.224882738E1,5.127587128E0,4.683610382E0,6.235732727E0,9.333419449E0
1.225877937E1,5.212310944E0,4.847070465E0,6.507268066E0,9.644004104E0
1.226873137E1,5.485492859E0,5.245691528E0,6.853797455E0,1.022655617E1
1.227868337E1,5.440586243E0,6.167025604E0,6.686744843E0,1.059928017E1
1.228863537E1,4.939877472E0,5.829926605E0,6.793023834E0,1.022426557E1
1.229858737E1,3.411855011E0,5.838009796E0,7.499554596E0,1.009784294E1
1.230853937E1,2.029030609E0,5.510041809E0,8.559201050E0,1.037966515E1
1.231849137E1,2.268532562E0,4.111799469E0,8.719367981E0,9.903560615E0
1.232844337E1,3.422033844E0,4.245621185E0,7.952063599E0,9.642143452E0
1.233839537E1,4.079466705E0,4.494703217E0,7.283404083E0,9.481159246E0
1.234834638E1,3.994293823E0,4.599036255E0,7.128775635E0,9.376831004E0
1.235829838E1,3.758534088E0,3.184926910E0,8.126600647E0,9.503261334E0
1.236825038E1,3.627107391E0,3.046913910E0,8.720864868E0,9.924367811E0
1.237820238E1,3.485352173E0,2.982398071E0,8.860823822E0,9.977804209E0
1.238815438E1,3.386557617E0,2.651286621E0,9.909542999E0,1.080264485E1
1.239810638E1,3.446882172E0,2.329006805E0,1.106603806E1,1.182211773E1
1.240805838E1,2.861898651E0,2.969824219E0,1.175565399E1,1.245815879E1
1.241801037E1,1.098266144E0,3.639830933E0,1.184262314E1,1.243793715E1
1.242796237E1,-3.553610229E-1,3.923041992E0,1.278012360E1,1.337341015E1
1.243791437E1,-4.695735168E-1,4.927752686E0,1.365744919E1,1.452684288E1
1.244786637E1,1.466949463E-1,5.806425476E0,1.404634048E1,1.519986109E1
1.245781837E1,4.818479919E-1,6.932234344E0,1.410876068E1,1.572721140E1
1.246777037E1,-1.091530151E0,8.621321869E0,1.206625809E1,1.486987603E1
1.247772137E1,-2.337988129E0,1.067145859E1,1.159773239E1,1.593278424E1
1.248767337E1,-2.627785492E0,1.127620102E1,1.241787689E1,1.697826942E1
1.249762538E1,-3.205733643E0,1.138682098E1,1.461141541E1,1.879973086E1
1.250757738E1,-2.861599274E0,1.345971039E1,1.677351929E1,2.169570242E1
1.251752938E1,-1.123713226E0,1.247939896E1,1.678190186E1,2.094350400E1
1.252748138E1,1.099463654E0,1.282143768E1,1.351449646E1,1.866118161E1
1.253743338E1,2.216740265E0,1.307665695E1,1.133023865E1,1.744382992E1
1.254738538E1,2.384840698E0,1.335148544E1,9.563612366E0,1.659555092E1
1.255733738E1,1.583257599E0,1.429272812E1,8.761879578E0,1.683921956E1
1.256728938E1,1.104253693E0,1.330208817E1,8.082292786E0,1.560411428E1
1.257724137E1,6.821315002E-1,1.016371445E1,9.323212280E0,1.380900728E1
1.258719337E1,6.866221619E-1,8.475375366E0,1.141151962E1,1.423117064E1
1.259714421E1,1.444346466E0,7.680079193E0,1.165775757E1,1.403470928E1
1.260709621E1,2.290536804E0,7.389832764E0,1.221385117E1,1.445802018E1
1.261704821E1,3.096460876E0,7.429649963E0,1.117471207E1,1.377178123E1
1.262700021E1,3.580554199E0,6.679709473E0,9.876312103E0,1.244911353E1
1.263695221E1,3.601809998E0,6.914571075E0,9.544901276E0,1.232434456E1
1.264690421E1,3.707041168E0,8.602311401E0,7.834258575E0,1.221136860E1
1.265685621E1,3.261567535E0,8.932225342E0,6.752158813E0,1.166250921E1
1.266680821E1,2.981350250E0,8.524473267E0,7.186854858E0,1.154148936E1
1.267676021E1,2.920277252E0,8.390950928E0,6.067183228E0,1.075856817E1
1.268671221E1,2.692001953E0,7.943231964E0,3.711232452E0,9.171426000E0
1.269666421E1,1.880838776E0,7.117399292E0,2.356399841E0,7.729653769E0
1.270661621E1,7.069798279E-1,6.079607391E0,2.867287445E0,6.758904039E0
1.271656721E1,-1.525328064E-1,4.896018677E0,3.767964478E0,6.179953191E0
1.272651921E1,-5.192701721E-1,3.392994232E0,3.380121002E0,4.817392382E0
1.273647121E1,-6.813830566E-1,2.116598511E0,2.916834412E0,3.667723423E0
1.274642321E1,-6.325845337E-1,1.356479187E0,1.144519958E0,1.884177516E0
1.275637521E1,-6.135740662E-1,1.699865112E0,-4.020639038E-1,1.851396748E0
1.276632721E1,-5.863307190E-1,3.536396027E0,-6.795867920E-1,3.648522821E0
1.277627921E1,-3.641926575E-1,5.213807831E0,-4.412823486E-1,5.245108054E0
1.278623121E1,7.990383911E-1,5.693709869E0,4.864883423E-2,5.749709657E0
1.279618321E1,2.373314667E0,6.189179535E0,-2.396516418E-1,6.632947967E0
1.280613521E1,3.880231018E0,6.676566010E0,-1.385668488E0,7.845559482E0
1.281608721E1,4.701573029E0,7.018904114E0,-1.663939819E0,8.610371631E0
1.282603921E1,4.961432648E0,6.925498352E0,-7.361691284E-1,8.551040073E0
1.283599121E1,4.775968323E0,6.338868256E0,9.310638428E-2,7.937240892E0
1.284594221E1,3.975732422E0,5.509892120E0,1.058598633E0,6.876480970E0
1.285589421E1,2.755919037E0,4.970114594E0,1.462309113E0,5.868174908E0
1.286584621E1,1.282682648E0,4.532424774E0,1.652563477E0,4.991904962E0
1.287579821E1,4.849914551E-2,4.179009705E0,1.606758728E0,4.477515817E0
1.288575021E1,-4.912783813E-1,3.661086731E0,6.086343384E-1,3.743707555E0
1.289570221E1,-2.633024597E-1,2.736758881E0,-3.511697388E-1,2.771731867E0
1.290565421E1,3.987707520E-1,1.854194183E0,3.662882996E-1,1.931636948E0
1.291560621E1,1.872755585E0,1.304088135E0,1.659598846E0,2.821724238E0
1.292555821E1,3.943399658E0,9.071136475E-1,3.794908447E0,5.547484669E0
1.293551021E1,5.876030731E0,2.987786865E-1,5.724545746E0,8.208984703E0
1.294546221E1,6.991960144E0,4.788542175E-1,8.058192902E0,1.067947943E1
1.295541421E1,7.005731506E0,2.011666718E0,1.019544846E1,1.253292648E1
1.296536621E1,5.086572418E0,4.039200439E0,1.003138962E1,1.195061240E1
1.297531721E1,1.394799500E0,4.948858795E0,9.372759247E0,1.069042959E1
1.298526921E1,-1.927691345E0,7.118596802E0,8.618477783E0,1.134321708E1
1.299522121E1,-4.150868225E0,7.996371460E0,8.025411072E0,1.206560759E1
1.300517321E1,-5.314698029E0,7.866142273E0,8.075407104E0,1.246332256E1
1.301512521E1,-4.166585541E0,7.803722076E0,7.929610291E0,1.188011922E1
1.302507721E1,-1.260229340E0,7.902217255E0,9.718989258E0,1.258935931E1
1.303502921E1,1.873504028E0,8.787176971E0,1.387120468E1,1.652679085E1
1.304498121E1,3.922293549E0,9.030570831E0,1.615081421E1,1.891518955E1
1.305493321E1,4.718936920E0,9.043144684E0,1.731165024E1,2.009328409E1
1.306488521E1,4.316124573E0,8.723708954E0,1.614826950E1,1.885467149E1
1.307483721E1,2.747386780E0,8.155191193E0,1.489881775E1,1.720552376E1
1.308478821E1,1.257085876E0,7.506290588E0,1.382375336E1,1.578039354E1
1.309474021E1,2.264790344E-1,7.038962402E0,1.200638260E1,1.391946506E1
1.310469221E1,-7.708969116E-2,6.849157104E0,1.005908203E1,1.216971763E1
1.311464421E1,2.091151428E-1,5.991291046E0,7.464527435E0,9.573842874E0
1.312459621E1,9.437873840E-1,4.239184570E0,4.732857971E0,6.423500994E0
1.313454821E1,1.486109619E0,2.322570190E0,4.968767395E0,5.682561352E0
1.314450021E1,1.365011444E0,1.876797180E0,7.778574371E0,8.117379081E0
1.315445221E1,1.438658295E0,2.422412567E0,9.527836761E0,9.935667752E0
1.316440421E1,2.347568207E0,2.530637512E0,9.440717926E0,1.005198277E1
1.317435621E1,2.924618225E0,2.832409973E0,9.027277679E0,9.902912719E0
1.318430821E1,3.076851654E0,3.420237579E0,8.854836273E0,9.978635509E0
1.319426021E1,3.069217529E0,3.877386932E0,8.550369415E0,9.877400610E0
1.320421221E1,2.868335266E0,3.669469299E0,7.576195221E0,8.893316938E0
1.321416321E1,3.027604065E0,2.986589355E0,5.750591583E0,7.152300742E0
1.322411521E1,3.593277740E0,2.290985870E0,3.558400269E0,5.551799136E0
1.323406721E1,4.052522736E0,1.513053589E0,2.917133789E0,5.217465019E0
1.324401921E1,2.598596191E0,9.478289795E-1,5.331762543E0,6.006560892E0
1.325397121E1,7.065307617E-2,6.213578796E-1,6.647676086E0,6.677025896E0
1.326392321E1,-1.048868866E0,3.237767029E-1,6.010451202E0,6.109867503E0
1.327387521E1,-1.163979492E0,5.691165161E-1,4.905449066E0,5.073674448E0
1.328382721E1,-7.866142273E-1,1.148112488E0,2.587519226E0,2.938057177E0
1.329377921E1,1.083746338E-1,1.614692230E0,1.129551086E0,1.973540402E0
1.330373121E1,1.672771454E0,2.847229156E0,1.722019043E0,3.724275472E0
1.331368321E1,3.729793854E0,5.483097839E0,2.800675964E0,7.198576940E0
1.332363521E1,9.495803375E0,1.137409744E1,8.746910706E0,1.720606931E1
1.333358721E1,1.221280334E1,1.463401840E1,7.146139526E0,2.035618752E1
1.334353821E1,6.644532623E0,9.922416229E0,-2.099384308E0,1.212483287E1
1.335349021E1,4.769531708E0,4.962181091E0,2.041903839E0,7.179209231E0
1.336344221E1,2.571203156E0,-4.843927002E-1,7.618557129E0,8.055317168E0
1.337339421E1,2.582130432E-1,-3.332070923E0,7.974816284E0,8.646795093E0
1.338334621E1,-1.201551361E0,-2.044149170E0,4.596641235E0,5.172173832E0
1.339329821E1,-1.595681763E0,3.354524231E-1,2.483335876E0,2.970805563E0
1.340325021E1,-6.379733276E-1,2.974314880E0,2.427951050E-1,3.051640286E0
1.341320221E1,4.016148376E-1,3.723506927E0,2.145039368E-1,3.751241162E0
1.342315421E1,2.203717346E0,4.979544983E0,3.807182922E0,6.644311867E0
1.343310621E1,2.415676575E0,6.693929901E0,8.135132904E0,1.080854191E1
1.344305821E1,1.082249451E0,6.949298859E0,1.110660370E1,1.314612735E1
1.345301021E1,-8.554710388E-1,5.485792236E0,9.127569122E0,1.068355115E1
1.346296121E1,-1.966460724E0,4.039948883E0,6.292913818E0,7.732329473E0
1.347291321E1,-1.046324158E0,3.245550842E0,5.480553131E0,6.454832076E0
1.348286521E1,1.785786438E-1,3.517684937E0,5.440586243E0,6.481201764E0
1.349281721E1,1.199755096E0,5.259911957E0,5.076393585E0,7.407824101E0
1.350276921E1,1.252595215E0,8.145012360E0,5.395080872E0,9.849726835E0
1.351272121E1,8.409512329E-1,1.009635452E1,6.364465027E0,1.196453044E1
1.352267321E1,2.764750671E-1,1.076097244E1,7.235653381E0,1.297033717E1
1.353262521E1,-2.228865051E-1,1.029199768E1,8.233777771E0,1.318218461E1
1.354257721E1,-3.197351074E-1,1.001582199E1,9.396859131E0,1.373753552E1
1.355252921E1,-4.442761230E-1,1.033136581E1,9.735754395E0,1.420279601E1
1.356248121E1,-1.229543152E0,1.033645523E1,9.632169800E0,1.418212883E1
1.357243321E1,-1.989363098E0,1.028092072E1,8.816066895E0,1.368860591E1
1.358238421E1,-2.196382599E0,9.805359650E0,8.530161438E0,1.318077496E1
1.359233608E1,-1.953437805E0,8.972940674E0,9.428742828E0,1.316171626E1
1.360228808E1,2.321672058E-1,8.018226013E0,1.149519562E1,1.401732401E1
1.361224008E1,2.202370148E0,7.789801025E0,1.048300049E1,1.324480024E1
1.362219208E1,3.157084808E0,7.624245300E0,9.986483002E0,1.295477301E1
1.363214408E1,2.005080414E0,7.510481873E0,7.640261993E0,1.089960039E1
1.364209608E1,1.086291046E0,7.547155609E0,8.003706207E0,1.105436109E1
1.365204808E1,-5.134323120E-1,8.446485443E0,6.802005157E0,1.085697947E1
1.366200008E1,-1.153800659E0,8.391250305E0,5.676495667E0,1.019641803E1
1.367195208E1,-4.565505981E-1,7.082222443E0,6.520290985E0,9.637453383E0
1.368190408E1,5.381309509E-1,6.269562378E0,8.091723175E0,1.025051127E1
1.369185608E1,1.658101959E0,4.656816101E0,9.269174652E0,1.050489586E1
1.370180708E1,2.317181396E0,5.257816315E0,9.480086060E0,1.108539551E1
1.371175908E1,4.258494415E0,5.455255737E0,1.035456757E1,1.245438314E1
1.372171108E1,4.656816101E0,7.157665558E0,8.761280823E0,1.223430235E1
1.373166308E1,3.494333496E0,9.520502014E0,7.583230591E0,1.266316356E1
1.374161508E1,2.556084595E0,1.018317398E1,7.849227448E0,1.310881277E1
1.375156708E1,1.306183777E0,9.660460968E0,8.557404785E0,1.297149948E1
1.376151908E1,2.935395813E-1,8.515941010E0,8.871451721E0,1.230081592E1
1.377147108E1,-6.439608765E-1,7.411537628E0,8.603808289E0,1.137414140E1
1.378142308E1,-9.491761780E-1,8.422684937E0,8.087082825E0,1.171509563E1
1.379137508E1,-9.255253601E-1,9.258247375E0,7.627987518E0,1.203153919E1
1.380132708E1,-8.836125183E-1,9.386680298E0,7.646399231E0,1.213910867E1
1.381127908E1,-5.282514954E-1,9.585915985E0,7.727979584E0,1.232438653E1
1.382123008E1,-1.621128845E-1,8.907077637E0,7.153025208E0,1.142488872E1
1.383118208E1,5.715115356E-1,8.513845367E0,5.767656097E0,1.029941966E1
1.384113408E1,2.040107574E0,7.590415649E0,3.466042328E0,8.590104660E0
1.385108608E1,3.380719757E0,6.350993042E0,2.498005371E0,7.616062600E0
1.386103808E1,4.991520081E0,6.713688812E0,1.897903290E0,8.578515436E0
1.387099008E1,5.792953491E0,6.952741699E0,5.365592194E0,1.052086056E1
1.388094208E1,4.702620850E0,5.045857086E0,5.979765015E0,9.128685898E0
1.389089408E1,3.470233612E0,4.666096802E0,4.465064850E0,7.331560871E0
1.390084608E1,2.354154510E0,3.395239563E0,4.768334198E0,6.309255596E0
1.391079808E1,1.071322174E0,3.708088989E0,3.192860413E0,5.009192826E0
1.392075008E1,3.930825806E-1,4.881199493E0,2.931354218E0,5.707316353E0
1.393070208E1,3.769161987E-1,5.843548279E0,3.088377686E0,6.620211404E0
1.394065308E1,2.333647156E-1,6.948251038E0,3.037034454E0,7.586582224E0
1.395060508E1,1.914518738E-1,6.885531464E0,3.712130585E0,7.824775449E0
1.396055708E1,-1.354682922E-1,6.559060364E0,3.544179840E0,7.456596761E0
1.397050908E1,-9.693841553E-1,6.822811890E0,3.768563232E0,7.854459661E0
1.398046108E1,-1.537003784E0,6.698570251E0,3.650458832E0,7.781971070E0
1.399041308E1,-1.480720825E0,6.144123230E0,3.671115875E0,7.308890216E0
1.400036508E1,-6.623725891E-1,5.401966553E0,4.634961548E0,7.148625646E0
1.401031708E1,4.797523499E-1,4.887785797E0,5.537434845E0,7.401607729E0
1.402026908E1,1.560654602E0,4.968617706E0,6.396947479E0,8.248863058E0
1.403022108E1,2.303559723E0,5.657634888E0,7.128775635E0,9.388006283E0
1.404017308E1,2.273172913E0,6.903943176E0,7.306007080E0,1.030579866E1
1.405012508E1,1.368454285E0,8.436156921E0,7.221283264E0,1.118875966E1
1.406007708E1,1.451980591E-1,1.016760635E1,7.128326569E0,1.241830669E1
1.407002808E1,-3.353027344E-2,1.136721176E1,5.792803802E0,1.275818182E1
1.407998008E1,2.869532776E-1,1.145148651E1,5.068310394E0,1.252623869E1
1.408993208E1,8.460406494E-1,1.093805420E1,5.775888977E0,1.239829456E1
1.409988408E1,1.092128906E0,9.804311829E0,6.124064941E0,1.161126382E1
1.410983608E1,1.053060150E0,8.175548859E0,6.258784790E0,1.034992376E1
1.411978808E1,9.404942322E-1,7.117848358E0,6.900650024E0,9.958276227E0
1.412974008E1,1.331630859E0,6.888974304E0,7.301666107E0,1.012647696E1
1.413969208E1,2.093995514E0,7.305108948E0,7.761809235E0,1.086255571E1
1.414964408E1,2.339784393E0,8.086334381E0,8.119565277E0,1.169575714E1
1.415959608E1,2.592758331E0,8.553961945E0,8.070467377E0,1.204263694E1
1.416954808E1,2.630030823E0,9.206006012E0,7.664212189E0,1.226408404E1
1.417950008E1,1.679357758E0,1.000714005E1,6.275699615E0,1.193094716E1
1.418945108E1,6.953041077E-1,1.048434769E1,5.165608063E0,1.170847987E1
1.419940308E1,3.252735901E-1,1.048749115E1,5.034780121E0,1.163796737E1
1.420935508E1,7.430548096E-1,1.052655991E1,5.187462616E0,1.175884188E1
1.421930708E1,1.555714874E0,1.064196991E1,5.903124390E0,1.226860424E1
1.422925908E1,1.991608429E0,1.036803955E1,5.813460846E0,1.205234729E1
1.423921108E1,1.447190552E0,9.418414307E0,6.004164276E0,1.126280947E1
1.424916308E1,-5.661227417E-1,7.940537567E0,7.598199463E0,1.100478382E1
1.425911508E1,-2.377505951E0,6.021228790E0,8.300089874E0,1.052612097E1
1.426906708E1,-2.874322815E0,5.188510437E0,7.169940033E0,9.305396943E0
1.427901908E1,-2.130369873E0,6.522985382E0,7.788902893E0,1.038050203E1
1.428897108E1,-1.228046265E0,8.402476959E0,7.727231140E0,1.148128119E1
1.429892308E1,-1.211281128E0,9.494007111E0,7.374863892E0,1.208271453E1
1.430887408E1,-1.554217987E0,9.659712524E0,7.084168396E0,1.207936594E1
1.431882608E1,-1.827998657E0,9.490863647E0,6.324797516E0,1.155080670E1
1.432877808E1,-1.740730133E0,9.022337952E0,5.957311707E0,1.095090345E1
1.433873008E1,-9.963281250E-1,8.488398285E0,5.559439087E0,1.019573137E1
1.434868208E1,1.472937012E-1,8.227790222E0,5.175038452E0,9.721072490E0
1.435863408E1,1.216370544E0,8.337661743E0,4.644242249E0,9.621078251E0
1.436858608E1,2.188598785E0,8.580007782E0,4.237537994E0,9.816477293E0
1.437853808E1,2.745440826E0,8.476722565E0,4.337979126E0,9.910112697E0
1.438849008E1,2.678230591E0,8.245303802E0,4.988526306E0,1.000216720E1
1.439844208E1,1.960922241E0,8.129145355E0,5.991740112E0,1.028733055E1
1.440839408E1,7.240443420E-1,8.228688354E0,6.907236328E0,1.076779764E1
1.441834608E1,-7.300318909E-1,8.536897430E0,7.576793976E0,1.143762962E1
1.442829708E1,-2.087109833E0,8.895102539E0,8.268804932E0,1.232282482E1
1.443824908E1,-3.091820526E0,9.362879791E0,8.550968170E0,1.305151059E1
1.444820108E1,-3.681893463E0,9.978848877E0,8.419541473E0,1.356548720E1
1.445815308E1,-3.611839142E0,1.037058426E1,7.835156708E0,1.349014753E1
1.446810508E1,-2.806663513E0,1.014560211E1,6.533014526E0,1.238914368E1
1.447805708E1,-1.672322388E0,9.599387970E0,5.611530762E0,1.124429585E1
1.448800908E1,-7.943980408E-1,9.006021881E0,5.239254913E0,1.044936794E1
1.449796108E1,-2.269281006E-1,8.593779144E0,5.443280640E0,1.017515801E1
1.450791308E1,1.466949463E-1,8.794811096E0,5.214406586E0,1.022547102E1
1.451786508E1,3.074606323E-1,9.521250458E0,5.131928101E0,1.082060203E1
1.452781708E1,3.890409851E-1,1.060290115E1,5.504653015E0,1.195299421E1
1.453776808E1,3.457809448E-2,1.149938690E1,5.040168915E0,1.255549272E1
1.454772008E1,-2.763253784E-1,1.209350143E1,4.375550995E0,1.286369228E1
1.455767208E1,-2.742297363E-1,1.168095932E1,4.689448242E0,1.259011268E1
1.456762408E1,-3.409909058E-1,1.029678772E1,5.666765900E0,1.175807586E1
1.457757608E1,1.681004333E-1,9.164841614E0,6.472091217E0,1.122098678E1
1.458752808E1,9.142987061E-1,8.209378510E0,6.249803467E0,1.035808288E1
1.459748063E1,1.405427399E0,7.492369537E0,5.564079437E0,9.437680194E0
1.460743263E1,1.798659668E0,7.164401550E0,4.329297180E0,8.561929704E0
1.461738463E1,1.751956787E0,6.803801422E0,3.153043213E0,7.700827740E0
1.462733663E1,1.254541168E0,6.656358032E0,3.246898041E0,7.511545958E0
1.463728863E1,9.630972290E-1,7.234156494E0,1.842668152E0,7.527018159E0
1.464724062E1,3.918850708E-1,7.811206512E0,1.779499512E0,8.020918875E0
1.465719262E1,-2.055226135E-1,8.387807465E0,3.898642731E0,9.251862988E0
1.466714362E1,-2.615061951E-1,8.611442413E0,4.732857971E0,9.829815385E0
1.467709562E1,-1.920506287E-1,8.190517731E0,4.670737152E0,9.430654786E0
1.468704762E1,6.526428223E-2,7.888296204E0,4.567002869E0,9.115206614E0
1.469699962E1,5.278024292E-1,7.696994019E0,3.402723999E0,8.432130392E0
1.470695162E1,7.631130981E-1,7.769443359E0,2.760260010E0,8.280436404E0
1.471690363E1,8.000862122E-1,7.962841187E0,3.913312225E0,8.908478562E0
1.472685563E1,6.045927429E-1,8.136629791E0,5.469326477E0,9.822617210E0
1.473680763E1,3.489244080E-1,8.336913300E0,6.354735260E0,1.048849521E1
1.474675963E1,4.528083801E-1,8.629405060E0,6.023174744E0,1.053329488E1
1.475671163E1,1.041833496E0,8.584648132E0,5.044659576E0,1.001150293E1
1.476666363E1,1.177451477E0,8.845256195E0,4.419709167E0,9.957850082E0
1.477661563E1,1.311422882E0,9.082961884E0,2.786305847E0,9.590804285E0
1.478656662E1,1.469494171E0,9.029223633E0,1.254990234E0,9.233704187E0
1.479651862E1,1.816622314E0,8.608598328E0,1.370100861E0,8.904226983E0
1.480647062E1,2.224224701E0,7.669900360E0,1.564845886E0,8.137769332E0
1.481642262E1,2.239193573E0,6.910679169E0,1.840273132E0,7.493869470E0
1.482637462E1,2.176024933E0,6.445746002E0,2.129920807E0,7.128764877E0
1.483632662E1,2.046993256E0,6.261030121E0,2.483036499E0,7.039612903E0
1.484627862E1,1.802551575E0,6.469546509E0,3.177143097E0,7.429566775E0
1.485623062E1,1.156345367E0,6.838978271E0,3.910617828E0,7.962517831E0
1.486618262E1,3.959266663E-1,7.126979370E0,4.450095978E0,8.411536547E0
1.487613463E1,5.837860107E-3,7.321874084E0,4.589007111E0,8.641114538E0
1.488608663E1,3.135978699E-1,7.947722626E0,3.665577393E0,8.757916201E0
1.489603863E1,7.541317749E-1,8.970845032E0,3.083587646E0,9.515949143E0
1.490598963E1,8.551716614E-1,9.932744751E0,3.893403625E0,1.070277201E1
1.491594163E1,1.068927155E0,1.090976303E1,4.423301697E0,1.182079238E1
1.492589363E1,9.563612366E-1,1.110286148E1,4.648134155E0,1.207449009E1
1.493584563E1,6.560856628E-1,1.088850723E1,4.647834778E0,1.185716687E1
1.494579762E1,5.743556213E-1,1.064047302E1,4.320465546E0,1.149852047E1
1.495574962E1,8.096662903E-1,1.041294617E1,4.176464996E0,1.124846066E1
1.496570162E1,1.052162018E0,1.011311966E1,4.073329468E0,1.095327563E1
1.497565362E1,1.300196228E0,9.713899841E0,3.998485107E0,1.058481193E1
1.498560562E1,1.428629150E0,9.242380371E0,4.193828888E0,1.024942813E1
1.499555762E1,1.751956787E0,8.901389465E0,4.898563385E0,1.031018963E1
1.500550962E1,2.172582092E0,8.847501526E0,5.635930023E0,1.071270757E1
1.501546162E1,2.269430695E0,9.099128265E0,5.745951233E0,1.099820015E1
1.502541263E1,2.488574982E0,9.716145172E0,5.464985504E0,1.142202036E1
1.503536463E1,2.661166077E0,1.048090485E1,4.417463837E0,1.168097419E1
1.504531663E1,2.752625885E0,1.100586319E1,4.251908112E0,1.211547343E1
1.505526863E1,2.390229492E0,1.146046783E1,4.706961823E0,1.261788451E1
1.506522063E1,2.193388824E0,1.181627792E1,5.151537323E0,1.307569177E1
1.507517263E1,1.871558075E0,1.213346832E1,5.916147308E0,1.362808065E1
1.508512463E1,1.423090668E0,1.228195953E1,7.092251587E0,1.425383280E1
1.509507663E1,1.353335724E0,1.277308823E1,7.614964600E0,1.493221304E1
1.510502862E1,2.077230377E0,1.356314529E1,6.823859711E0,1.532445293E1
1.511498062E1,2.957549744E0,1.368918320E1,5.683381348E0,1.511428664E1
1.512493262E1,3.636388092E0,1.261441818E1,4.602778473E0,1.391159351E1
1.513488362E1,4.219874725E0,1.128428421E1,4.321064301E0,1.279898471E1
1.514483562E1,5.054838409E0,9.964029694E0,4.646786957E0,1.210065734E1
1.515478762E1,5.339246979E0,9.307944031E0,4.395459595E0,1.159592366E1
1.516473962E1,4.824766846E0,9.687105560E0,3.602259064E0,1.140590459E1
1.517469163E1,4.366719360E0,8.892707520E0,5.841452637E0,1.150091535E1
1.518464363E1,4.518803101E0,6.684050446E0,6.956783295E0,1.065330679E1
1.519459563E1,4.611909485E0,8.041577454E0,7.066654816E0,1.165651266E1
1.520454763E1,4.386927338E0,8.751700745E0,7.227121124E0,1.216834735E1
1.521449963E1,4.179309082E0,9.036109314E0,5.579497375E0,1.141265468E1
1.522445163E1,3.211122437E0,9.226213989E0,4.894671478E0,1.092667107E1
1.523440363E1,2.527344360E0,8.937314758E0,5.001549225E0,1.054886531E1
1.524435563E1,2.342179413E0,8.785081329E0,5.535339203E0,1.064440879E1
1.525430662E1,2.208208008E0,8.826395416E0,5.720953217E0,1.074759249E1
1.526425862E1,2.105072479E0,8.784781952E0,6.313121796E0,1.102085436E1
1.527421062E1,1.849104767E0,8.821605377E0,6.993906097E0,1.140853331E1
1.528416262E1,1.555565186E0,9.074729004E0,6.790329437E0,1.144023878E1
1.529411462E1,1.372046814E0,9.280700684E0,5.913452911E0,1.108976298E1
1.530406662E1,1.178948364E0,9.623038788E0,5.319787445E0,1.105861353E1
1.531401862E1,1.220861206E0,9.986483002E0,5.029541016E0,1.124796104E1
1.532397062E1,1.328786774E0,1.019080811E1,4.636009369E0,1.127434375E1
1.533392263E1,1.722617798E0,1.024304947E1,3.330873413E0,1.090789586E1
1.534387463E1,2.540067902E0,9.791139221E0,2.317929840E0,1.037743470E1
1.535382663E1,2.695744171E0,9.282047882E0,3.419938202E0,1.025277654E1
1.536377863E1,2.531086578E0,9.006920013E0,5.216202850E0,1.071166558E1
1.537372963E1,2.544109497E0,8.670569458E0,6.299350433E0,1.101512977E1
1.538368163E1,3.236868896E0,8.318651276E0,5.762716370E0,1.062479079E1
1.539363363E1,3.422632599E0,7.648943939E0,5.159470825E0,9.840777230E0
1.540358562E1,3.267106018E0,7.335046692E0,4.632117462E0,9.270027178E0
1.541353762E1,2.965483246E0,6.550079041E0,3.473975830E0,7.985370022E0
1.542348962E1,3.052452393E0,5.593268738E0,2.513123932E0,6.849665151E0
1.543344162E1,2.784060516E0,4.746779022E0,2.176024933E0,5.917599898E0
1.544339362E1,2.531835022E0,3.975433044E0,2.551593933E0,5.359560436E0
1.545334562E1,2.332299957E0,3.665876770E0,3.223995667E0,5.410399582E0
1.546329762E1,2.245031433E0,3.598217468E0,4.497397614E0,6.181740886E0
1.547324962E1,2.142195282E0,3.834276581E0,5.852679291E0,7.317412958E0
1.548320162E1,1.880539398E0,4.600682831E0,6.904541931E0,8.507373873E0
1.549315263E1,1.597028961E0,5.383854218E0,7.286397858E0,9.199346796E0
1.550310463E1,1.385518799E0,6.226751404E0,7.229067078E0,9.641136147E0
1.551305663E1,1.139879608E0,7.303462372E0,6.688541107E0,9.968774763E0
1.552300863E1,1.058598633E0,8.221054230E0,5.944288788E0,1.020004573E1
1.553296063E1,1.269060974E0,9.036408691E0,5.407654724E0,1.060706969E1
1.554291263E1,1.764530640E0,9.518256683E0,4.851561127E0,1.082813114E1
1.555286463E1,2.655477905E0,9.641749878E0,4.292324066E0,1.088296603E1
1.556281662E1,3.766467590E0,9.640702057E0,4.068838806E0,1.112136968E1
1.557276862E1,4.702920227E0,9.770182800E0,4.065395966E0,1.158021481E1
1.558272062E1,5.132377167E0,1.000534378E1,4.691693573E0,1.218442400E1
1.559267296E1,5.160967712E0,1.015667908E1,6.248755646E0,1.299387028E1
1.560262396E1,4.821773071E0,1.016805542E1,8.034093018E0,1.382698439E1
1.561257596E1,4.211791534E0,1.040216858E1,9.325008545E0,1.459109603E1
1.562252796E1,3.514242096E0,1.078207855E1,9.158255310E0,1.457658244E1
1.563247996E1,3.110381927E0,1.115270782E1,8.167765045E0,1.416932438E1
1.564243196E1,3.036435699E0,1.119492004E1,7.128476257E0,1.361474753E1
1.565238396E1,2.975063324E0,1.086006638E1,5.696104889E0,1.261894030E1
1.566233596E1,2.855312347E0,1.005713608E1,4.540807343E0,1.139814573E1
1.567228796E1,2.689307556E0,8.810079346E0,4.064048767E0,1.006808649E1
1.568223996E1,2.570454712E0,7.772137756E0,4.222569122E0,9.211050576E0
1.569219196E1,2.563868408E0,6.966363373E0,4.903054047E0,8.896267692E0
1.570214396E1,2.734513550E0,6.613397369E0,5.315895538E0,8.914781797E0
1.571209596E1,2.883902893E0,6.340365143E0,5.653443604E0,8.970983816E0
1.572204696E1,2.952310638E0,6.144272919E0,6.231990509E0,9.236121129E0
1.573199896E1,3.183729401E0,6.442602539E0,6.782845001E0,9.881813937E0
1.574195096E1,3.579506378E0,6.892117767E0,7.250322876E0,1.062456282E1
1.575190296E1,3.837270355E0,7.178472290E0,7.428602142E0,1.101994728E1
1.576185496E1,3.860322418E0,7.385940857E0,7.213050385E0,1.102190126E1
1.577180696E1,3.711382141E0,7.587272186E0,6.707102509E0,1.078546618E1
1.578175896E1,3.535647583E0,7.824828186E0,6.210435333E0,1.059708672E1
1.579171096E1,3.448079681E0,8.077353058E0,5.672304382E0,1.045504294E1
1.580166296E1,3.489992523E0,8.426277466E0,5.339246979E0,1.056833753E1
1.581161496E1,3.508104858E0,8.640482025E0,5.226980438E0,1.069046556E1
1.582156696E1,3.403622131E0,8.801397400E0,5.193599854E0,1.077138428E1
1.583151796E1,3.156036987E0,8.968150635E0,5.314847717E0,1.089201090E1
1.584146996E1,2.933599548E0,8.877439270E0,5.704337769E0,1.095236977E1
1.585142196E1,2.902015228E0,8.843908997E0,6.298901367E0,1.123888683E1
1.586137396E1,2.994672546E0,9.393266602E0,6.951544189E0,1.206339454E1
1.587132596E1,3.051554260E0,9.805958405E0,7.449558563E0,1.268718749E1
1.588127796E1,2.930156708E0,1.005563919E1,7.601342926E0,1.294148802E1
1.589122996E1,2.771636353E0,1.013991394E1,7.568860474E0,1.295328034E1
1.590118196E1,2.618055725E0,9.983788605E0,7.362140350E0,1.267798727E1
1.591113396E1,2.542462921E0,9.693841553E0,6.999743958E0,1.222420129E1
1.592108596E1,2.675985260E0,9.313033447E0,6.549480286E0,1.169569071E1
1.593103796E1,2.904110870E0,8.811276855E0,5.904770966E0,1.099721692E1
1.594098996E1,3.285068665E0,8.352929993E0,5.341791687E0,1.044499182E1
1.595094096E1,3.800297241E0,7.958949280E0,4.872667236E0,1.007621054E1
1.596089296E1,4.188589783E0,7.680228882E0,4.010460205E0,9.623616321E0
1.597084496E1,4.458029480E0,7.401358795E0,3.447181549E0,9.302537261E0
1.598079696E1,4.624483337E0,7.028484192E0,3.147205353E0,8.982780066E0
1.599074896E1,4.691394196E0,6.708898773E0,3.319796448E0,8.833999700E0
1.600070096E1,4.591102753E0,6.534212036E0,3.569776611E0,8.747425706E0
1.601065296E1,4.233646088E0,6.573430481E0,4.054019623E0,8.807316424E0
1.602060496E1,3.996090088E0,6.812782745E0,4.639601898E0,9.160166510E0
1.603055696E1,3.814966736E0,7.213349762E0,5.001249847E0,9.570730694E0
1.604050896E1,3.713477783E0,7.733967133E0,5.050198059E0,9.955333510E0
1.605046096E1,3.623814240E0,8.260572052E0,4.841681671E0,1.023772248E1
1.606041296E1,3.548520813E0,8.655001831E0,4.432133331E0,1.035108026E1
1.607036396E1,3.481011200E0,8.822503510E0,3.893253937E0,1.025238672E1
1.608031596E1,3.419938202E0,8.627010040E0,3.274291077E0,9.840846589E0
1.609026796E1,3.492537231E0,8.084987183E0,2.848276978E0,9.256214982E0
1.610021996E1,3.544479218E0,7.562573547E0,2.633323975E0,8.757296771E0
1.611017196E1,3.460803223E0,7.180567932E0,2.860102386E0,8.468642184E0
1.612012396E1,3.397035828E0,6.838080139E0,3.213517456E0,8.284074290E0
1.613007596E1,2.930456085E0,6.447841644E0,2.959944763E0,7.676164911E0
1.614002796E1,2.249671783E0,5.897585907E0,2.998564453E0,6.988127893E0
1.614997996E1,1.796114960E0,5.301824799E0,3.139271851E0,6.417974984E0
1.615993196E1,1.663640442E0,4.942272491E0,3.335513763E0,6.190267277E0
1.616988396E1,1.708547058E0,4.856051788E0,3.609294434E0,6.287080271E0
1.617983596E1,1.941462708E0,5.047204285E0,3.884571991E0,6.658336736E0
1.618978696E1,2.188000031E0,5.517975311E0,4.060306549E0,7.191765078E0
1.619973896E1,2.355052643E0,6.095474396E0,4.098028107E0,7.713294719E0
1.620969096E1,2.397414551E0,6.749314728E0,4.132606201E0,8.269176491E0
1.621964296E1,2.376158752E0,7.409142609E0,3.959715729E0,8.730456647E0
1.622959496E1,2.173480225E0,7.843539276E0,3.473826141E0,8.849440249E0
1.623954696E1,1.926344147E0,8.137527924E0,3.185525665E0,8.948616443E0
1.624949896E1,1.757644958E0,8.287066956E0,2.918930054E0,8.960186783E0
1.625945096E1,1.658551025E0,8.437803497E0,2.699785767E0,9.013110592E0
1.626940296E1,1.645079041E0,8.714428253E0,2.665357361E0,9.260220013E0
1.627935496E1,1.815724182E0,9.338031464E0,2.680924988E0,9.883473312E0
1.628930696E1,2.160008240E0,9.958191833E0,2.669249268E0,1.053357071E1
1.629925796E1,2.669249268E0,1.012105316E1,2.446063385E0,1.074913182E1
1.630920996E1,3.346590729E0,1.005548950E1,2.393223267E0,1.086462407E1
1.631916196E1,4.215234375E0,9.978399811E0,2.123783569E0,1.103843831E1
1.632911396E1,5.136269073E0,9.610614624E0,1.770667877E0,1.103994738E1
1.633906596E1,5.757028198E0,9.199569397E0,1.388512573E0,1.094090572E1
1.634901796E1,6.078858948E0,8.663983154E0,8.473878479E-1,1.061768319E1
1.635896996E1,6.150410156E0,7.847880249E0,8.318202209E-1,1.000543324E1
1.636892196E1,5.871390381E0,7.108867035E0,9.668394470E-1,9.270598365E0
1.637887396E1,5.163213043E0,6.671177216E0,1.044527893E0,8.500259578E0
1.638882596E1,4.337530060E0,6.424490204E0,1.058748322E0,7.823630194E0
1.639877796E1,3.621568909E0,6.371201019E0,1.324745178E0,7.447342719E0
1.640872896E1,3.076701965E0,6.506819000E0,1.894460449E0,7.442699032E0
1.641868096E1,2.759810944E0,6.749763794E0,2.557132416E0,7.727534789E0
1.642863296E1,2.657872925E0,7.097640381E0,2.998564453E0,8.150593613E0
1.643858496E1,2.811303864E0,7.628436584E0,3.190016327E0,8.733423058E0
1.644853696E1,3.292702789E0,8.499475250E0,3.120560760E0,9.634358860E0
1.645848896E1,4.068838806E0,9.808353424E0,2.666105804E0,1.094839560E1
1.646844096E1,5.031486969E0,1.111812973E1,1.926942902E0,1.235482816E1
1.647839296E1,5.740712128E0,1.201237015E1,1.079105988E0,1.335729321E1
1.648834496E1,6.078110504E0,1.184037781E1,2.083666992E-1,1.331095003E1
1.649829696E1,6.042334900E0,1.075169174E1,-4.986131287E-1,1.234330999E1
1.650824896E1,5.820047150E0,9.382489014E0,-7.589218140E-1,1.106706877E1
1.651820096E1,5.645061035E0,8.270451508E0,-1.474433899E-1,1.001443068E1
1.652815196E1,5.470074921E0,7.459587708E0,1.146914978E0,9.321082682E0
1.653810396E1,4.968318329E0,6.968009949E0,2.155517578E0,8.825168876E0
1.654805596E1,3.865561523E0,6.656956787E0,2.344125366E0,8.046897743E0
1.655800796E1,2.109413452E0,6.529421997E0,2.295626221E0,7.235528763E0
1.656795996E1,5.792953491E-1,6.632258148E0,2.139800262E0,6.992937609E0
1.657791196E1,-2.739303589E-1,6.320755920E0,1.616039429E0,6.529822102E0
1.658786396E1,-5.071453857E-1,5.955365753E0,1.209784241E0,6.098127221E0
1.659781596E1,-4.564009094E-1,5.497467957E0,9.324110413E-1,5.594626536E0
1.660776796E1,2.058219910E-1,4.772375793E0,1.485959930E0,5.002600356E0
1.661771996E1,1.378932495E0,4.653522949E0,2.234104156E0,5.343028359E0
1.662767196E1,2.858904877E0,5.375920715E0,2.488125916E0,6.577585515E0
1.663762296E1,4.459676056E0,6.581064606E0,2.332299957E0,8.284850328E0
1.664757496E1,5.888155518E0,8.137827301E0,2.070195007E0,1.025574551E1
1.665752696E1,6.786886597E0,1.004246658E1,1.733545074E0,1.224410647E1
1.666747896E1,7.275171204E0,1.261621445E1,6.798861694E-1,1.457941111E1
1.667743096E1,7.597151642E0,1.508877274E1,-1.073118439E0,1.692747349E1
1.668738296E1,8.035739594E0,1.596759521E1,-1.662592621E0,1.795275528E1
1.669733496E1,8.377928009E0,1.541225006E1,-1.395248566E0,1.759755234E1
1.670728696E1,8.082891541E0,1.416040329E1,-9.933343506E-1,1.633514218E1
1.671723896E1,7.194638672E0,1.243913269E1,-6.321354675E-1,1.438382574E1
1.672719096E1,6.164480896E0,1.091200836E1,-2.662962341E-1,1.253569563E1
1.673714296E1,5.234315186E0,9.525142365E0,7.619155884E-2,1.086886368E1
1.674709396E1,4.370461578E0,8.349038086E0,3.412902832E-1,9.429944349E0
1.675704596E1,3.814367981E0,7.353308716E0,6.164181519E-1,8.306655374E0
1.676699796E1,3.586392059E0,6.826254730E0,1.125060425E0,7.792671083E0
1.677694996E1,3.411106567E0,6.334078217E0,1.625020752E0,7.375424551E0
1.678690196E1,3.230132904E0,6.293362885E0,2.073188782E0,7.371450787E0
1.679685396E1,3.162772980E0,6.430178375E0,2.298769684E0,7.525600901E0
1.680680596E1,3.341800690E0,6.617289276E0,2.092348938E0,7.702861370E0
1.681675796E1,3.807182922E0,6.904392242E0,1.736538849E0,8.073465254E0
1.682670996E1,4.406087494E0,7.391179962E0,1.455273743E0,8.727025261E0
1.683666196E1,4.854554901E0,8.164920959E0,1.195414124E0,9.574009217E0
1.684661396E1,5.131628723E0,9.104966125E0,1.335971832E0,1.053654793E1
1.685656596E1,5.271437988E0,9.924511871E0,1.597777405E0,1.135063377E1
1.686651696E1,5.217550049E0,1.025233017E1,1.437610474E0,1.159309391E1
1.687646896E1,5.110971680E0,1.019065842E1,1.247056732E0,1.146850910E1
1.688642096E1,5.216801605E0,9.970466309E0,1.373693390E0,1.133632440E1
