"Time (s)","Acceleration x (m/s^2)","Acceleration y (m/s^2)","Acceleration z (m/s^2)","Absolute acceleration (m/s^2)"
3.117833287E-3,-2.570454712E0,7.522007904E0,4.309987335E0,9.042335493E0
1.307083329E-2,-2.486179962E0,8.062683563E0,4.180656281E0,9.416254244E0
2.302283328E-2,-2.588716736E0,7.940088501E0,4.664749603E0,9.565895076E0
3.297583328E-2,-2.535876617E0,8.050109711E0,5.145998840E0,9.885152535E0
4.292783339E-2,-2.623893585E0,8.333021393E0,5.472320251E0,1.030875123E1
5.288083339E-2,-3.003204803E0,8.621770935E0,5.683231659E0,1.075422221E1
6.283383339E-2,-3.312461700E0,8.593330078E0,5.989195404E0,1.098581749E1
7.278583338E-2,-3.158282318E0,8.178542633E0,6.052813110E0,1.065363099E1
8.273883339E-2,-2.613714752E0,8.073311462E0,6.059998169E0,1.042753281E1
9.269083338E-2,-2.299218750E0,8.054600372E0,6.465953979E0,1.058166125E1
1.026438334E-1,-2.646795959E0,8.230933685E0,7.109316101E0,1.119357734E1
1.125958334E-1,-2.375559998E0,8.630752258E0,7.297025757E0,1.154901531E1
1.225488334E-1,-2.075883179E0,8.826694794E0,7.096742249E0,1.151449445E1
1.325018334E-1,-2.063908081E0,8.400381317E0,6.893315277E0,1.106091851E1
1.424538334E-1,-2.067051544E0,7.656877441E0,6.979835358E0,1.056496928E1
1.524068334E-1,-1.719773712E0,7.223977661E0,6.956633606E0,1.017537351E1
1.623589167E-1,-9.373507690E-1,7.275919647E0,7.142097931E0,1.023851532E1
1.723119167E-1,-2.080673218E-2,7.181466064E0,7.522157593E0,1.039984339E1
1.822649167E-1,8.167016602E-1,6.954837341E0,7.928861847E0,1.057845046E1
1.922169167E-1,1.733096008E0,6.966662750E0,7.688162384E0,1.051883323E1
2.021699167E-1,2.382146301E0,6.679859161E0,7.138505402E0,1.006247478E1
2.121219167E-1,2.594704285E0,6.084397430E0,6.389163666E0,9.196401185E0
2.220749167E-1,2.667003937E0,5.519322510E0,5.887856140E0,8.499569453E0
2.320269167E-1,2.821033630E0,5.064119110E0,6.009403381E0,8.349638442E0
2.419799167E-1,3.249891815E0,4.771477661E0,6.248156891E0,8.506953651E0
2.519329167E-1,3.770958252E0,4.643044739E0,6.573580170E0,8.887628864E0
2.618849167E-1,3.902085571E0,4.187691650E0,6.853049011E0,8.929015282E0
2.718379167E-1,4.854105835E0,4.085454254E0,8.050109711E0,1.024975835E1
2.817899167E-1,5.266198883E0,4.042942657E0,9.137747955E0,1.129498445E1
2.917429167E-1,4.302053833E0,4.305047607E0,1.003782623E1,1.173878433E1
3.016959167E-1,3.215613098E0,5.714666290E0,1.116273697E1,1.294620698E1
3.116479167E-1,3.799848175E0,5.959257660E0,1.135523666E1,1.337508870E1
3.216009167E-1,4.430486755E0,5.702242126E0,9.918374634E0,1.226861580E1
3.315529167E-1,4.199067993E0,5.411696320E0,8.165070648E0,1.065772057E1
3.415059167E-1,3.987857208E0,5.118605804E0,6.925797729E0,9.490511297E0
3.514579167E-1,3.799997864E0,5.256618805E0,6.104455719E0,8.907098554E0
3.614109167E-1,3.554658051E0,5.691464539E0,6.623875580E0,9.428896550E0
3.713639167E-1,3.618425446E0,5.803731079E0,7.002138977E0,9.788066581E0
3.813159167E-1,3.856879578E0,5.107678528E0,7.301366730E0,9.709472496E0
3.912689167E-1,3.266956329E0,4.953349457E0,6.949897614E0,9.138366995E0
4.012209167E-1,3.737727356E0,5.223836975E0,8.044720917E0,1.029449431E1
4.111739167E-1,4.462669830E0,5.181175690E0,8.483608246E0,1.089640365E1
4.211269167E-1,4.509821777E0,5.187163239E0,7.265591125E0,1.000169832E1
4.310789166E-1,4.255800018E0,5.010829926E0,7.270530853E0,9.802084943E0
4.410319166E-1,4.003424835E0,4.423301697E0,7.273674316E0,9.407409121E0
4.509839166E-1,4.071233826E0,4.096082153E0,7.318431244E0,9.322675031E0
4.609369166E-1,4.205354919E0,4.300706635E0,7.023843842E0,9.247457481E0
4.708889166E-1,3.957470398E0,4.551734619E0,6.587052155E0,8.931355781E0
4.808419166E-1,4.026177521E0,4.619842987E0,6.852001190E0,9.192549971E0
4.907949166E-1,3.926484833E0,4.434228973E0,7.306156769E0,9.405296192E0
5.007469166E-1,3.785328369E0,4.514312439E0,7.802225189E0,9.776627515E0
5.106999166E-1,4.439917145E0,4.719236298E0,8.258925476E0,1.049732849E1
5.206519166E-1,4.846920776E0,4.601281586E0,8.076305237E0,1.048289748E1
5.306049166E-1,4.690496063E0,4.397405548E0,7.749534760E0,1.006941994E1
5.405579166E-1,4.244573364E0,4.324357452E0,7.614515533E0,9.731254659E0
5.505099166E-1,3.716172180E0,4.385430450E0,7.490273895E0,9.441723303E0
5.604629166E-1,3.398832092E0,4.695286102E0,7.454498291E0,9.442844696E0
5.704149166E-1,3.233426056E0,4.983885956E0,7.728578339E0,9.748081166E0
5.803679166E-1,3.102897491E0,5.133574677E0,7.971074066E0,9.975950259E0
5.903199167E-1,3.062780914E0,4.763244781E0,7.507188721E0,9.403563700E0
6.002729167E-1,2.716401215E0,4.265380096E0,7.110812988E0,8.725592489E0
6.102259167E-1,2.412682800E0,4.032015381E0,6.433621216E0,7.966785316E0
6.201779167E-1,2.412084045E0,4.722978516E0,6.370452576E0,8.288989174E0
6.301309167E-1,2.919828186E0,4.913382568E0,6.676715698E0,8.788928115E0
6.400829167E-1,4.068090363E0,4.131408691E0,6.250402222E0,8.525574755E0
6.500359167E-1,5.306465149E0,4.382885742E0,5.943839722E0,9.093816055E0
6.599889167E-1,4.911436615E0,4.396657104E0,6.076314240E0,8.965176967E0
6.699409167E-1,4.781057739E0,3.136577454E0,5.826483765E0,8.163610983E0
6.798939167E-1,5.173990631E0,2.341880035E0,6.681655426E0,8.769213213E0
6.898459167E-1,5.582491150E0,2.428849182E0,7.148534546E0,9.389625229E0
6.997989167E-1,6.311325531E0,3.419489136E0,7.161108398E0,1.013938901E1
7.097509167E-1,6.370751953E0,6.393205261E0,5.566773834E0,1.060417488E1
7.197039167E-1,6.362219696E0,5.639073486E0,6.095923462E0,1.046122708E1
7.296569167E-1,6.642886047E0,3.469036102E0,4.988376617E0,9.002557847E0
7.396089167E-1,7.551496582E0,3.198249207E0,4.549339600E0,9.378186893E0
7.495619167E-1,8.135432281E0,3.095113678E0,4.818629608E0,9.949079273E0
7.595139167E-1,8.822353821E0,2.641706543E0,3.151246948E0,9.733596341E0
7.694669167E-1,1.083102676E1,2.066303101E0,2.547702026E0,1.131686948E1
7.794199167E-1,1.120450012E1,-3.013233948E-1,7.021748199E0,1.322635878E1
7.893719167E-1,1.081905167E1,-3.139870605E0,7.521558838E0,1.354564556E1
7.993249167E-1,1.126407623E1,4.715194702E0,3.704197083E0,1.276062500E1
8.092769167E-1,9.508227539E0,7.854765930E0,3.685635681E0,1.287197145E1
8.192299167E-1,8.149952087E0,6.640940094E0,3.227288818E0,1.099723590E1
8.291819167E-1,9.286538544E0,5.679339752E0,5.079986115E0,1.201253333E1
8.391349167E-1,5.332211609E0,5.107528839E0,2.596949615E0,7.827099002E0
8.490879167E-1,9.072783051E0,5.706134033E0,1.861828308E0,1.087850001E1
8.590399167E-1,9.678573303E0,4.121080170E0,2.983445892E0,1.093430530E1
8.689929167E-1,7.466772766E0,2.109114075E0,2.934497681E0,8.295320028E0
8.789449167E-1,8.203690338E0,1.884431305E0,1.998793488E0,8.651404043E0
8.888979167E-1,6.775959320E0,3.328927460E0,-2.421963501E-1,7.553412594E0
8.988509167E-1,1.113264954E1,6.306834869E0,-1.029409332E0,1.283634431E1
9.088029166E-1,1.404155045E1,6.705156555E0,1.180145874E0,1.560503148E1
9.187559166E-1,9.680519257E0,2.624642029E0,5.310357056E0,1.134905683E1
9.287079166E-1,9.495354309E0,2.507735138E0,4.649032288E0,1.086572548E1
9.386609166E-1,1.206715622E1,3.261268158E0,3.537144470E0,1.299090144E1
9.486129166E-1,1.241263779E1,2.190395050E0,5.999523926E-1,1.261869051E1
9.585659166E-1,1.352437592E1,3.804488525E0,-9.689350891E-1,1.408267418E1
9.685189166E-1,1.339624237E1,4.934189301E0,-5.819897461E-1,1.428790558E1
9.784709166E-1,1.300555481E1,5.070555725E0,6.333329773E-1,1.397340695E1
9.884239166E-1,1.239841736E1,5.668262787E0,1.522933044E0,1.371748086E1
9.983759166E-1,1.189770859E1,6.100264435E0,1.601519623E0,1.346601503E1
1.008328917E0,1.123758133E1,6.436315613E0,2.032922516E0,1.310885833E1
1.018281917E0,1.062295944E1,6.312073975E0,2.247875519E0,1.255955770E1
1.028233917E0,1.086560486E1,6.000122681E0,1.696721649E0,1.252763767E1
1.038186917E0,1.142544067E1,6.473737793E0,1.288221130E0,1.319505549E1
1.048138917E0,1.166075134E1,6.454128571E0,2.100132751E0,1.349219979E1
1.058091917E0,1.213212112E1,5.462291107E0,2.805166626E0,1.359757136E1
1.068044917E0,1.230186813E1,6.379882965E0,2.611020355E0,1.410164152E1
1.077996917E0,1.187705154E1,6.568191376E0,2.904559937E0,1.387955186E1
1.087949917E0,1.196372131E1,5.767805786E0,3.315305786E0,1.368902713E1
1.097901917E0,1.163919617E1,5.313051453E0,3.438499603E0,1.324849737E1
1.107854917E0,1.170820267E1,4.856351166E0,3.165317688E0,1.306466197E1
1.117806917E0,1.132275421E1,4.765789490E0,3.052302704E0,1.265835946E1
1.127759917E0,1.065948349E1,4.878954163E0,3.104394379E0,1.212707906E1
1.137712917E0,9.874515839E0,5.211113434E0,2.604134674E0,1.146487172E1
1.147664917E0,8.918603668E0,5.129682770E0,2.187401276E0,1.051854843E1
1.157617917E0,7.765102386E0,4.693190460E0,2.285896454E0,9.356718141E0
1.167569708E0,6.648274841E0,4.802912292E0,2.209854584E0,8.494173423E0
1.177522708E0,5.979615326E0,5.005590820E0,1.834584961E0,8.011082379E0
1.187475708E0,5.806575165E0,4.792134705E0,1.805545349E0,7.742148551E0
1.197427708E0,5.905220032E0,4.581672363E0,1.709445190E0,7.667173412E0
1.207380708E0,5.941145325E0,4.659809875E0,2.088606720E0,7.834112194E0
1.217332708E0,5.258115692E0,4.575235748E0,2.784958649E0,7.505768279E0
1.227285708E0,4.431833954E0,4.375700684E0,2.696193237E0,6.786557790E0
1.237237708E0,4.268074493E0,4.281097412E0,2.432741089E0,6.516324435E0
1.247190708E0,4.215833130E0,3.745511169E0,2.273921356E0,6.080528039E0
1.257143708E0,4.633913727E0,3.222498779E0,1.721719666E0,5.901014609E0
1.267095708E0,5.267097015E0,3.376229095E0,2.431693268E0,6.712254913E0
1.277048708E0,5.643863525E0,3.370989990E0,2.474055176E0,7.024081294E0
1.287000708E0,5.790408783E0,3.414998474E0,2.738255768E0,7.258725308E0
1.296953708E0,5.949378204E0,3.690276031E0,2.319576416E0,7.375206638E0
1.306906708E0,6.207441559E0,3.935615845E0,2.049987030E0,7.630455400E0
1.316858708E0,6.244564362E0,3.987857208E0,1.792372742E0,7.623003950E0
1.326811708E0,6.030060425E0,3.903582458E0,1.054706726E0,7.260302405E0
1.336763708E0,6.909331970E0,4.182452545E0,2.222877502E-1,8.079677556E0
1.346716708E0,8.298742676E0,4.422253876E0,-2.790197754E-1,9.407619857E0
1.356668708E0,9.276659088E0,4.728816376E0,-4.538562012E-1,1.042228831E1
1.366621708E0,9.211394806E0,5.386398926E0,-6.976991272E-1,1.069344995E1
1.376574708E0,8.905580750E0,6.020929413E0,-1.163829803E0,1.081274522E1
1.386526708E0,8.288114777E0,6.419700165E0,-1.207389221E0,1.055287570E1
1.396479708E0,8.033344574E0,6.395300903E0,-1.055305481E0,1.032221722E1
1.406431708E0,7.611671448E0,5.816454620E0,-1.143023071E0,9.647548306E0
1.416384708E0,7.575596466E0,5.870342560E0,-1.743723907E0,9.741209199E0
1.426337708E0,8.161627808E0,5.647905121E0,-1.212927704E0,9.999109677E0
1.436289708E0,8.203540649E0,4.594246216E0,-3.267704773E-1,9.408079316E0
1.446242708E0,7.671247559E0,4.894671478E0,-6.418652344E-1,9.122381211E0
1.456194708E0,6.915618896E0,5.363047485E0,-1.094823303E0,8.819676928E0
1.466147708E0,6.244714050E0,5.368585968E0,-9.412426758E-1,8.288794040E0
1.476099708E0,5.482499084E0,5.269791412E0,-1.323248291E0,7.718774759E0
1.486052708E0,5.213358765E0,5.154381409E0,-2.035018158E0,7.608420087E0
1.496005708E0,5.708828430E0,5.263205109E0,-2.057022400E0,8.032645344E0
1.505957708E0,5.157375183E0,7.005881195E0,-2.479144592E0,9.045830421E0
1.515910708E0,4.533322906E0,9.030570831E0,-3.269650726E0,1.062039745E1
1.525862708E0,3.361559601E0,1.169712570E1,-3.159030762E0,1.257387402E1
1.535815708E0,3.082240448E0,1.073387878E1,-3.443289642E0,1.168642818E1
1.545768708E0,2.494861908E0,1.630723892E1,-5.283413086E0,1.732237949E1
1.555720708E0,1.435963898E0,1.599274292E1,-4.561165009E0,1.669233491E1
1.565673708E0,4.730163574E-1,1.583751572E1,-4.161196747E0,1.638188655E1
1.575625708E0,9.517208862E-1,1.520642807E1,-4.555177460E0,1.590254285E1
1.585578708E0,2.010618896E0,1.329924408E1,-4.299509125E0,1.412084488E1
1.595530708E0,1.780247955E0,1.210787155E1,-4.352199554E0,1.298889823E1
1.605483708E0,1.162931671E0,9.926008759E0,-3.369193726E0,1.054654096E1
1.615436708E0,1.703906708E0,8.482560425E0,-1.278042297E0,8.745885978E0
1.625388708E0,6.743476868E-1,7.728578339E0,-2.251468048E0,8.078042851E0
1.635341708E0,3.432512054E0,5.928122406E0,-1.780697021E0,7.077828491E0
1.645293708E0,5.447322235E0,6.002817078E0,-2.364033966E0,8.443683378E0
1.655246708E0,5.653742981E0,4.280199280E0,-1.005758514E0,7.162155106E0
1.665199708E0,3.929478607E0,7.503895569E0,-3.646417236E-1,8.478337951E0
1.675151708E0,8.054750061E-1,8.371940460E0,-2.770738220E-1,8.415161731E0
1.685104708E0,-7.894583130E-1,1.223226288E1,5.577401733E-1,1.227039419E1
1.695056708E0,-1.633852386E0,7.840545502E0,-3.823049927E-1,8.018091075E0
1.705009708E0,-5.435347137E0,7.908354492E0,1.359472961E0,9.691916013E0
1.714962708E0,-1.328487396E0,1.314326843E1,4.770579529E-1,1.321884897E1
1.724914708E0,6.765930176E-1,1.245709534E1,-2.200873260E0,1.266810347E1
1.734867708E0,-1.603166199E-1,1.228480362E1,-2.339185638E0,1.250655392E1
1.744819708E0,1.378932495E0,1.104657852E1,-2.154918823E0,1.133896058E1
1.754772708E0,1.653162231E0,1.094583801E1,-8.071215820E-1,1.109935856E1
1.764724708E0,1.927990723E0,1.175415710E1,2.863545227E-1,1.191466980E1
1.774677708E0,2.724185028E0,1.305914337E1,9.466314697E-1,1.337379979E1
1.784630708E0,1.428629150E0,8.621920624E0,-2.948418732E0,9.223430463E0
1.794582708E0,-2.929408264E-1,8.040379944E0,-2.330952759E0,8.376566405E0
1.804535708E0,1.960024109E0,1.039094193E1,-4.317022705E0,1.142147336E1
1.814487708E0,3.056943054E0,1.153231842E1,-5.569019165E0,1.316636789E1
1.824440708E0,2.153272247E0,1.077444443E1,-6.143075409E0,1.258819326E1
1.834393708E0,1.866618347E0,9.020841064E0,-2.605781250E0,9.573397176E0
1.844345708E0,1.432970123E0,7.460336151E0,-1.998344421E-1,7.599338962E0
1.854298708E0,1.505718842E0,7.480544128E0,-9.812095642E-1,7.693406391E0
1.864250708E0,2.168540497E0,9.096284180E0,-2.035467224E0,9.570166173E0
1.874203708E0,1.842668152E0,9.046138458E0,-1.633702698E0,9.375341670E0
1.884155708E0,1.431473236E0,8.511899414E0,-1.631906433E0,8.784342085E0
1.894108708E0,1.537003784E0,8.788374481E0,-1.840123444E0,9.109553279E0
1.904061708E0,1.451531525E0,8.964857483E0,-1.724563751E0,9.243902509E0
1.914013708E0,1.132844238E0,9.231453094E0,-6.346801758E-1,9.322332392E0
1.923966708E0,8.846603394E-1,9.443262634E0,1.534309387E0,9.607910199E0
1.933918708E0,7.114704895E-1,9.566306763E0,9.478289795E-1,9.639439564E0
1.943871708E0,6.608757019E-1,1.107980942E1,-1.381626892E-1,1.110036136E1
1.953824708E0,2.490820312E-1,1.135748199E1,-5.688171387E-3,1.136021441E1
1.963776708E0,4.173321533E-1,1.112546448E1,-8.119116211E-1,1.116285476E1
1.973729708E0,7.487429810E-1,9.796228638E0,-9.271719360E-1,9.868452734E0
1.983681708E0,1.780996399E0,8.417146454E0,-1.507365417E-1,8.604825629E0
1.993634708E0,2.909499664E0,8.402626648E0,-9.175918579E-2,8.892566707E0
2.003586708E0,2.150577850E0,8.172405396E0,-1.082997894E0,8.519746444E0
2.013539708E0,1.607806549E0,7.683821411E0,-1.753303986E0,8.043645209E0
2.023492708E0,1.623224487E0,8.355325012E0,-9.645941162E-1,8.566023325E0
2.033444708E0,9.315129089E-1,8.415200500E0,-8.131091309E-1,8.505554786E0
2.043397708E0,-6.673123169E-1,8.767867126E0,-2.379002838E0,9.109360800E0
2.053349708E0,-5.659730530E-1,9.389524384E0,-1.746268616E0,9.567285285E0
2.063302708E0,1.450483704E-1,1.024469604E1,-1.076261902E0,1.030209570E1
2.073255708E0,-2.984793091E-1,9.925859070E0,-2.143542480E0,1.015906209E1
2.083207708E0,-4.257147217E-1,8.202792206E0,-2.853216705E0,8.695279096E0
2.093160708E0,-4.405339050E-1,7.859106903E0,-1.052611084E0,7.941512547E0
2.103112708E0,-1.965263214E0,8.757239227E0,4.457730103E-1,8.986112172E0
2.113065708E0,-4.590653687E0,9.219028931E0,-6.556365967E-1,1.031961506E1
2.123017708E0,-5.440885620E0,9.173673248E0,-1.373094635E0,1.075383216E1
2.132970708E0,-5.400619354E0,9.598340149E0,-1.659000092E0,1.113764357E1
2.142923708E0,-5.739813995E0,9.692045288E0,-3.605252838E0,1.182704759E1
2.152875708E0,-4.678071899E0,9.670490112E0,-5.272336121E0,1.196663127E1
2.162828708E0,-2.196831665E0,8.342002716E0,-5.096302185E0,1.001935001E1
2.172780417E0,-1.195414124E0,6.637048187E0,-5.437293091E0,8.662769749E0
2.182733417E0,-1.786983948E0,6.458619232E0,-4.536765747E0,8.092547032E0
2.192686417E0,-2.315684509E-1,3.957919464E0,-2.442171478E0,4.656495674E0
2.202638417E0,9.455836487E-1,3.716621246E0,-8.970845032E-1,3.938548277E0
2.212591417E0,4.966671753E-1,8.821755066E0,-3.992497559E0,9.695879407E0
2.222543417E0,-1.915117493E0,1.181103882E1,-5.871989136E0,1.332848714E1
2.232496417E0,-1.166673889E0,1.130598907E1,-4.071233826E0,1.207317116E1
2.242448417E0,1.939516754E0,1.094434113E1,-3.817361755E0,1.175213081E1
2.252401417E0,1.940714264E0,1.235874985E1,-5.150788879E0,1.352906855E1
2.262354417E0,2.786006470E0,1.182495987E1,-3.994742889E0,1.278864648E1
2.272306417E0,3.788022766E0,1.107052872E1,-3.035238190E0,1.208794414E1
2.282259417E0,4.273014221E0,1.018032990E1,-3.291804657E0,1.152101320E1
2.292211417E0,4.775668945E0,9.447304230E0,-3.822600861E0,1.125481446E1
2.302164417E0,4.261039124E0,8.929381256E0,-3.011138306E0,1.034201421E1
2.312117417E0,3.353775787E0,8.727151794E0,-2.705773315E0,9.733046785E0
2.322069417E0,3.148253174E0,8.563991089E0,-1.178050232E0,9.200067596E0
2.332022417E0,2.930456085E0,7.661817169E0,-1.186881866E0,8.288528444E0
2.341974417E0,1.639390869E0,7.877817993E0,-1.644629974E0,8.212942622E0
2.351927417E0,-3.650907898E-1,8.600365448E0,-1.241218872E0,8.697137541E0
2.361880417E0,1.431473236E0,9.455686798E0,-1.209634552E0,9.639623654E0
2.371832417E0,1.181044006E-1,6.251599731E0,-5.506149902E0,8.331514544E0
2.381785417E0,-2.266137543E0,7.388036499E0,-4.115391998E0,8.755279206E0
2.391737417E0,-5.243895264E0,9.098080444E0,-3.697311401E-1,1.050762611E1
2.401690417E0,-8.153394928E0,8.667425995E0,2.770887909E0,1.221801711E1
2.411642417E0,-9.138646088E0,7.991282043E0,6.686445465E0,1.385943700E1
2.421595417E0,-1.124356888E1,7.837102661E0,9.362879791E0,1.659823898E1
2.431548417E0,-1.014515305E1,7.851472778E0,8.464597778E0,1.536942324E1
2.441500417E0,-6.273304596E0,6.166576538E0,3.224594421E0,9.369046159E0
2.451453417E0,-6.699169006E0,4.145030365E0,-5.617817688E-1,7.897831402E0
2.461405417E0,-8.062384186E0,5.246140594E0,-2.317181396E0,9.894107313E0
2.471358417E0,-9.242829437E0,5.491630096E0,-1.969903564E0,1.093016089E1
2.481311417E0,-8.814869385E0,5.699098663E0,1.379680939E0,1.058702826E1
2.491263417E0,-7.929161224E0,6.827901306E0,2.798131256E0,1.083149909E1
2.501216417E0,-7.459887085E0,7.994275818E0,3.513343964E0,1.148485729E1
2.511168417E0,-6.048771515E0,8.104297028E0,4.198918304E0,1.094980283E1
2.521121417E0,-4.522844696E0,7.777825928E0,3.226690063E0,9.558359120E0
2.531073417E0,-4.017196198E0,7.836503906E0,3.936813354E-2,8.806259627E0
2.541026417E0,-4.143683167E0,7.974965973E0,-3.554208984E0,9.664501744E0
2.550979417E0,-4.672533417E0,9.703122253E0,-5.884263611E0,1.227223322E1
2.560931417E0,-5.629343719E0,1.217508179E1,-6.650520172E0,1.497169148E1
2.570884417E0,-6.929989014E0,1.387105499E1,-5.572761383E0,1.647684993E1
2.580836417E0,-7.702382813E0,1.398556686E1,-3.359014893E0,1.631581327E1
2.590789417E0,-7.051685944E0,1.136646332E1,-1.312770081E0,1.344046607E1
2.600742417E0,-6.842870178E0,9.453591156E0,3.212319946E-1,1.167469263E1
2.610694417E0,-7.242539063E0,8.086633759E0,1.343605957E0,1.093861484E1
2.620647417E0,-7.645800476E0,8.340356140E0,2.819087677E0,1.166049145E1
2.630599417E0,-8.888965302E0,7.844138031E0,3.421135712E0,1.233889684E1
2.640552417E0,-9.582622833E0,7.815397797E0,2.179467773E0,1.255616115E1
2.650505417E0,-8.243208160E0,8.292904816E0,8.072712708E-1,1.172068419E1
2.660457417E0,-4.350403290E0,1.099852844E1,-1.714235229E0,1.195124425E1
2.670410417E0,6.236181793E0,1.748783386E1,-6.177952881E0,1.956735543E1
2.680362417E0,7.539222107E0,1.781445465E1,-1.153830597E1,2.252392437E1
2.690315417E0,1.979483643E0,1.450004700E1,-1.370519989E1,2.004999308E1
2.700267417E0,-2.365979919E0,6.570287018E0,4.850662994E0,8.502673930E0
2.710220417E0,-5.178481293E0,1.887275391E0,1.020877075E1,1.160161528E1
2.720173417E0,-5.220094757E0,1.892364807E0,1.014245865E1,1.156286735E1
2.730125417E0,-4.348008270E0,2.085014191E0,6.511309662E0,8.102444915E0
2.740078417E0,-5.066065063E0,2.380499725E0,2.431393890E0,6.102742860E0
2.750030417E0,-6.113886108E0,3.930227051E0,1.149908752E0,7.358571747E0
2.759983417E0,-7.364385681E0,5.126539307E0,-4.580474854E-1,8.984730893E0
2.769936417E0,-8.259224854E0,5.989794159E0,-1.403631134E0,1.029867028E1
2.779888417E0,-8.337512054E0,6.006259918E0,-1.297950897E0,1.035731345E1
2.789841417E0,-7.417674866E0,6.796616364E0,-2.016307068E-1,1.006263133E1
2.799793417E0,-5.973029022E0,7.942483521E0,1.012045441E0,9.989211988E0
2.809746417E0,-4.857997742E0,8.497229919E0,1.566342773E0,9.912441074E0
2.819698417E0,-4.392316132E0,8.550668793E0,2.028880920E0,9.824598495E0
2.829651417E0,-4.363725586E0,8.374934235E0,2.073039093E0,9.668459831E0
2.839604417E0,-4.769382019E0,8.034841461E0,1.320104828E0,9.436543801E0
2.849556417E0,-5.282664642E0,7.713010712E0,5.182223511E-1,9.362992810E0
2.859509417E0,-5.716013489E0,7.338938599E0,7.095245361E-2,9.302572989E0
2.869461417E0,-5.941893768E0,6.957681427E0,9.415420532E-2,9.150098218E0
2.879414417E0,-5.891897736E0,6.855444031E0,4.180805969E-1,9.049108419E0
2.889367417E0,-5.746699677E0,6.983427887E0,7.560777283E-1,9.075487632E0
2.899319417E0,-5.584287415E0,7.317233734E0,5.703140259E-1,9.222333411E0
2.909272417E0,-5.177283783E0,7.709268494E0,3.649411011E-1,9.293560678E0
2.919224417E0,-5.103187866E0,8.023315430E0,2.368075562E-1,9.511687269E0
2.929177417E0,-5.163512421E0,8.239765320E0,4.354444885E-1,9.733714859E0
2.939130417E0,-5.135969696E0,8.286767578E0,8.259823608E-1,9.784219359E0
2.949082417E0,-5.247188416E0,8.305478668E0,3.266207886E-1,9.829580017E0
2.959035417E0,-5.032235413E0,8.330776062E0,-8.292755127E-2,9.733041663E0
2.968987417E0,-5.007536774E0,8.458011475E0,3.698808289E-1,9.836167672E0
2.978940417E0,-5.606141968E0,8.616681519E0,-2.484832764E-2,1.027991467E1
2.988892417E0,-5.952671356E0,8.018226013E0,-2.339634705E-1,9.989043176E0
2.998845417E0,-6.219117279E0,6.977739716E0,-3.300636292E-1,9.352818467E0
3.008798417E0,-6.459517365E0,6.851103058E0,1.300794983E-1,9.417000497E0
3.018750417E0,-6.286327515E0,7.358996887E0,3.659889221E-1,9.685385728E0
3.028703417E0,-5.832321625E0,7.751031647E0,1.835183716E-1,9.701966095E0
3.038655417E0,-5.194647675E0,7.732769623E0,9.734257507E-1,9.366303870E0
3.048608417E0,-4.727918243E0,7.790848846E0,2.045496368E0,9.339946041E0
3.058561417E0,-4.701273651E0,8.513995056E0,8.481362915E-1,9.762654400E0
3.068513417E0,-4.726121979E0,8.688981171E0,-1.317260742E-2,9.891147368E0
3.078466417E0,-5.318140869E0,9.079369354E0,-5.057981873E-1,1.053439139E1
3.088418417E0,-5.935307465E0,8.470585327E0,-4.704716492E-1,1.035374493E1
3.098371417E0,-6.422544250E0,7.345075836E0,1.601669312E-2,9.757021586E0
3.108324417E0,-6.856491852E0,7.065157928E0,9.279203796E-1,9.888830735E0
3.118276417E0,-6.803502045E0,7.589667206E0,9.443861389E-1,1.023633497E1
3.128229417E0,-6.352340240E0,7.906408539E0,1.240919495E0,1.021779838E1
3.138181417E0,-5.742209015E0,8.016579437E0,1.172511749E0,9.930422652E0
3.148134417E0,-4.907245331E0,8.266709290E0,1.052162018E0,9.670914338E0
3.158086417E0,-4.299509125E0,8.903784485E0,8.005352783E-1,9.919879717E0
3.168040042E0,-4.167483673E0,8.798104248E0,6.548881531E-1,9.757224863E0
3.177993042E0,-4.262985077E0,8.397387543E0,7.656578064E-1,9.448565562E0
3.187945042E0,-4.452940063E0,8.488847351E0,5.614823914E-1,9.602315712E0
3.197898042E0,-4.919220428E0,8.916058960E0,4.390370178E-1,1.019252621E1
3.207850042E0,-5.517526245E0,8.704399109E0,5.424719238E-1,1.032007439E1
3.217803042E0,-5.969735870E0,7.598947906E0,4.008663940E-1,9.671734566E0
3.227756042E0,-6.484665070E0,6.770869904E0,1.977388000E-1,9.377348290E0
3.237708042E0,-6.910978546E0,6.976841583E0,2.318678284E-1,9.823019171E0
3.247661042E0,-7.032226410E0,7.717651062E0,7.244934082E-1,1.046609941E1
3.257613042E0,-6.778504028E0,8.086035004E0,1.093625793E0,1.060792611E1
3.267566042E0,-6.277495880E0,8.304131470E0,1.202449493E0,1.047909532E1
3.277519042E0,-5.729036407E0,8.264763336E0,1.087338867E0,1.011486416E1
3.287471042E0,-5.305267639E0,8.338859253E0,6.744973755E-1,9.906431500E0
3.297424042E0,-4.970264282E0,8.634045410E0,2.677931213E-1,9.966041357E0
3.307376042E0,-4.935686188E0,8.763975220E0,4.463717651E-1,1.006814320E1
3.317329042E0,-4.397405548E0,8.484207001E0,1.353335724E0,9.651448677E0
3.327281042E0,-5.218448181E0,1.063867676E1,1.239422607E-1,1.185027452E1
3.337234042E0,-5.505551147E0,6.619534607E0,1.172661438E0,8.689330624E0
3.347187042E0,-6.026018829E0,7.051685944E0,7.813751221E-1,9.308583386E0
3.357139042E0,-6.211483154E0,8.566835175E0,8.710386658E-1,1.061752778E1
3.367092042E0,-6.166726227E0,8.731343079E0,5.041516113E-1,1.070135660E1
3.377044042E0,-5.860313416E0,9.197473755E0,8.041278076E-1,1.093542035E1
3.386997042E0,-5.312752075E0,9.371561737E0,8.729846191E-1,1.080803433E1
3.396950042E0,-5.132975922E0,9.389674072E0,5.224136353E-1,1.071383857E1
3.406902042E0,-5.228327637E0,9.853559418E0,-5.733078003E-2,1.115487920E1
3.416855042E0,-5.306016083E0,8.375682678E0,3.415896606E-1,9.920814004E0
3.426807042E0,-6.490053864E0,9.326355743E0,-3.086581421E-1,1.136648496E1
3.436760042E0,-7.708669739E0,8.536148987E0,-1.908531189E-1,1.150329751E1
3.446713042E0,-6.729106750E0,4.865781555E0,2.938988342E0,8.808766104E0
3.456665042E0,-6.495143280E0,7.110363922E0,9.792636108E-1,9.680037115E0
3.466618042E0,-5.457800446E0,8.040679321E0,7.198530579E-1,9.744654846E0
3.476570042E0,-4.735552368E0,8.064479828E0,4.287084961E-1,9.361895219E0
3.486523042E0,-4.628524933E0,8.137527924E0,4.336482239E-1,9.371801030E0
3.496475042E0,-4.960983582E0,7.348668365E0,3.592529297E-1,8.873744841E0
3.506428042E0,-5.602549438E0,6.851103058E0,3.239263916E-1,8.856133560E0
3.516381042E0,-5.879922638E0,6.206842804E0,3.207829285E-1,8.555775214E0
3.526333042E0,-5.621559906E0,7.019502869E0,1.019529877E0,9.050679393E0
3.536286042E0,-4.744833069E0,9.753717041E0,1.612297211E0,1.096576214E1
3.546238042E0,-4.158502350E0,1.092637848E1,1.763632507E0,1.182325201E1
3.556191042E0,-4.743186493E0,1.036998550E1,1.557810516E0,1.150917856E1
3.566144042E0,-5.529501343E0,9.711055756E0,1.058149567E0,1.122495744E1
3.576096042E0,-5.921236725E0,8.597221985E0,9.870474243E-1,1.048558691E1
3.586049042E0,-5.849386139E0,8.023764496E0,8.933422852E-1,9.969662749E0
3.596001042E0,-5.330864410E0,7.941136322E0,7.967930603E-1,9.597637242E0
3.605954042E0,-4.930297394E0,7.937693481E0,1.154100037E0,9.415240682E0
3.615907042E0,-4.835394745E0,9.290131073E0,9.804611206E-1,1.051897722E1
3.625859042E0,-4.405937805E0,1.002869522E1,2.374362488E0,1.120823862E1
3.635812042E0,-5.883814545E0,4.786446533E0,5.853278046E0,9.580720635E0
3.645764042E0,-9.077273712E0,-2.987936554E0,-7.856412506E0,1.237125217E1
3.655717042E0,-3.594175873E0,9.852062531E0,1.982627106E0,1.067295866E1
3.665670042E0,-2.585423584E0,9.463171234E0,4.343068542E0,1.072838615E1
3.675622042E0,-3.257226562E0,9.139244843E0,5.803431702E-1,9.719676917E0
3.685575042E0,-3.855682068E0,1.099134338E1,3.185375977E0,1.207570013E1
3.695527042E0,-4.886887665E0,1.045141617E1,3.157084808E0,1.196164518E1
3.705480042E0,-6.309978333E0,1.030891251E1,1.813628540E0,1.222206006E1
3.715433042E0,-5.836512909E0,9.708810425E0,2.011517029E0,1.150530676E1
3.725385042E0,-5.304369507E0,9.349707184E0,1.371448059E0,1.083670753E1
3.735338042E0,-4.111949158E0,9.102271729E0,1.084644470E0,1.004668752E1
3.745290042E0,-3.445534973E0,8.038284302E0,1.537303162E0,8.879697449E0
3.755243042E0,-4.355642395E0,7.295079803E0,1.498683472E0,8.627622046E0
3.765195042E0,-5.484594727E0,6.713688812E0,2.451003113E0,9.008985128E0
3.775148042E0,-5.822292480E0,6.236780548E0,3.085383911E0,9.072822891E0
3.785101042E0,-5.406457214E0,8.293802948E0,1.784139862E0,1.005982614E1
3.795053042E0,-4.458029480E0,9.219328308E0,1.951641541E0,1.042491947E1
3.805006042E0,-4.051025848E0,9.404493256E0,1.795216827E0,1.039606210E1
3.814958042E0,-3.769161987E0,9.329349518E0,2.209405518E0,1.030169002E1
3.824911042E0,-3.385060730E0,8.976982269E0,2.658022614E0,9.955397080E0
3.834864042E0,-3.398383026E0,8.887468414E0,2.185605011E0,9.762836231E0
3.844816042E0,-3.772604828E0,9.349856873E0,1.781146088E0,1.023840086E1
3.854769042E0,-3.637136536E0,1.071411987E1,9.093589783E-1,1.135112596E1
3.864721042E0,-1.975591736E0,1.470646774E1,4.664450226E0,1.555442870E1
3.874674042E0,-4.283791809E0,6.693480835E0,-1.927990723E-1,7.949259678E0
3.884627042E0,-4.814138947E0,5.317093048E0,5.102888489E-1,7.190814070E0
3.894579042E0,-4.200415192E0,6.697372742E0,3.414100342E0,8.611293199E0
3.904532042E0,-3.825744324E0,6.478527832E0,3.441792755E0,8.273667861E0
3.914484042E0,-3.346890106E0,8.042774963E0,2.265239410E0,9.001067275E0
3.924437042E0,-3.623514862E0,9.367370453E0,1.397044830E0,1.014047452E1
3.934390042E0,-4.673880615E0,1.078866486E1,1.369352417E0,1.183704251E1
3.944342042E0,-5.593568115E0,1.155447235E1,1.416354675E0,1.291510341E1
3.954295042E0,-6.454577637E0,1.016176849E1,2.432890778E0,1.228177792E1
3.964247042E0,-6.292764130E0,8.794212341E0,3.921245728E0,1.150274833E1
3.974200042E0,-5.750441895E0,1.035232224E1,5.916446686E0,1.323791898E1
3.984153042E0,-4.908442841E0,1.156450150E1,6.001619568E0,1.392300052E1
3.994105042E0,-4.608167267E0,6.183641052E0,4.139641571E0,8.752671281E0
4.004058042E0,-4.466561737E0,3.043471069E0,2.710713043E0,6.046557293E0
4.014010042E0,-4.023333435E0,5.168003082E0,4.246219940E0,7.805501366E0
4.023963042E0,-4.149820404E0,6.308930511E0,2.332749023E0,7.903501224E0
4.033916042E0,-3.770060120E0,7.276069336E0,4.867877197E-1,8.209232642E0
4.043868042E0,-3.789220276E0,8.151748352E0,-6.798861694E-1,9.015067204E0
4.053821042E0,-4.279301147E0,8.330177307E0,-2.658022614E0,9.734955392E0
4.063773042E0,-5.025349731E0,8.419391785E0,-4.358336792E0,1.073011638E1
4.073726042E0,-4.995262299E0,7.972271576E0,-4.092339935E0,1.025948369E1
4.083678042E0,-5.125491486E0,7.198380890E0,-3.307521973E0,9.435414776E0
4.093631042E0,-5.933211823E0,7.398065643E0,-2.000589752E0,9.692096633E0
4.103584042E0,-6.475384369E0,6.673572235E0,1.369651794E-1,9.299781103E0
4.113536042E0,-6.398594055E0,5.977519684E0,2.960094452E0,9.243100487E0
4.123489042E0,-6.235583038E0,6.801556091E0,4.355642395E0,1.020368962E1
4.133441042E0,-5.963748322E0,7.119345245E0,4.525838470E0,1.033124313E1
4.143394042E0,-5.719306641E0,7.018005981E0,4.053570557E0,9.919390640E0
4.153347042E0,-5.648653564E0,7.138206024E0,2.856958923E0,9.540622968E0
4.163299042E0,-5.509742432E0,7.758665771E0,1.736838226E0,9.673198191E0
4.173251917E0,-5.048102417E0,8.417296143E0,1.004710693E0,9.866288864E0
4.183203917E0,-4.606520691E0,9.045090637E0,5.822891235E-1,1.016723945E1
4.193156917E0,-4.570146332E0,9.548942871E0,-2.544708252E-2,1.058627390E1
4.203109917E0,-4.960384827E0,9.703870697E0,-5.640270996E-1,1.091277466E1
4.213061917E0,-5.450166321E0,9.556127930E0,-4.516108704E-1,1.101035178E1
4.223014917E0,-6.065686340E0,1.008692413E1,9.205856323E-1,1.180618766E1
4.232966917E0,-6.623576202E0,1.060364960E1,1.829495544E0,1.263551346E1
4.242919917E0,-6.851701813E0,1.104104004E1,2.438279572E0,1.322102833E1
4.252872917E0,-6.403084717E0,1.040366547E1,1.519789581E0,1.231038218E1
4.262824917E0,-5.282365265E0,9.079219666E0,7.330256653E-1,1.052962199E1
4.272777917E0,-4.170477448E0,6.961723022E0,6.445596313E-1,8.140879971E0
4.282729917E0,-3.981570282E0,6.343358917E0,6.069877625E-1,7.513956242E0
4.292682917E0,-5.181475067E0,4.265380096E0,-1.458866272E0,6.868001313E0
4.302635917E0,-6.805447998E0,7.348967743E0,-4.727319489E0,1.107560377E1
4.312587917E0,-6.847809906E0,5.499413910E0,-1.943857727E0,8.995256346E0
4.322540917E0,-7.351811829E0,7.891289978E0,-3.016078033E0,1.119903216E1
4.332492917E0,-6.990912323E0,6.946604462E0,-3.152743835E0,1.034736500E1
4.342445917E0,-6.818321228E0,5.704487457E0,-2.784808960E0,9.315891931E0
4.352398917E0,-6.451134796E0,4.842579803E0,-1.518741760E0,8.208184686E0
4.362350917E0,-6.669830017E0,3.870800629E0,5.674699402E-1,7.732512664E0
4.372303917E0,-7.515870667E0,3.718417511E0,-1.743873596E-1,8.387213579E0
4.382255917E0,-7.879464569E0,4.564009094E0,-6.575825500E-1,9.129543018E0
4.392208917E0,-7.420518951E0,4.595593414E0,-2.926414490E-1,8.733225026E0
4.402161917E0,-6.625671844E0,4.809348907E0,4.210743713E-1,8.197967305E0
4.412113917E0,-5.550906830E0,6.417305145E0,1.788780212E-1,8.486835058E0
4.422066917E0,-4.619244232E0,8.400081940E0,2.592608643E-1,9.589891035E0
4.432018917E0,-3.915707245E0,1.045515839E1,1.050515442E0,1.121368284E1
4.441971917E0,-3.390449524E0,1.194201645E1,1.436412964E0,1.249680707E1
4.451924917E0,-3.557502136E0,1.193812454E1,1.120869141E0,1.250723737E1
4.461876917E0,-3.979025574E0,1.137843842E1,5.816903687E-1,1.206813444E1
4.471829917E0,-4.129462738E0,1.176792847E1,-6.201603699E-1,1.248684115E1
4.481781917E0,-4.220922546E0,1.101843704E1,-6.489006042E-1,1.181707299E1
4.491734917E0,-4.443210297E0,1.101334763E1,8.301736450E-1,1.190483649E1
4.501687917E0,-4.882846069E0,1.008363098E1,1.350791016E0,1.128478781E1
4.511639917E0,-5.042713623E0,9.180708618E0,7.538323975E-1,1.050155392E1
4.521592917E0,-4.822970581E0,8.995244293E0,1.522334290E-1,1.020777352E1
4.531544917E0,-4.669240265E0,8.868457947E0,-1.932481384E-1,1.002440501E1
4.541497917E0,-4.045487366E0,9.558522949E0,2.305206299E-1,1.038192991E1
4.551450917E0,-3.820654907E0,1.087293961E1,4.806504822E-1,1.153469742E1
4.561402917E0,-3.877536621E0,9.819580078E0,4.575984192E-1,1.056734780E1
4.571355917E0,-3.532953186E0,1.122141495E1,6.694079590E-1,1.178346378E1
4.581307917E0,-3.407514038E0,9.403295746E0,6.971003723E-1,1.002591999E1
4.591260917E0,-3.511996765E0,8.547675018E0,4.351451111E-1,9.251282115E0
4.601213917E0,-3.584296417E0,8.042176208E0,3.465293884E-1,8.811575432E0
4.611165917E0,-4.049828339E0,7.845185852E0,1.571731567E-2,8.828833312E0
4.621118917E0,-3.414549408E0,9.657167816E0,-4.496649170E-1,1.025291356E1
4.631070917E0,-2.703228607E0,1.151809799E1,-2.147434387E0,1.202437111E1
4.641023917E0,-4.164340210E0,1.031220566E1,-4.399351501E0,1.195983313E1
4.650975917E0,-3.811224518E0,9.010362854E0,6.087690582E0,1.152267537E1
4.660928917E0,-5.516927490E0,1.372705444E1,6.546785889E0,1.617803814E1
4.670881917E0,-7.340285797E0,1.154159912E1,1.198108521E0,1.373039584E1
4.680833917E0,-6.603667603E0,4.387975159E0,8.866062927E-1,7.978021216E0
4.690786917E0,-5.937702484E0,3.899989929E0,1.732197876E0,7.312095576E0
4.700739917E0,-5.888604584E0,4.116739197E0,2.677781525E0,7.667706271E0
4.710691917E0,-5.702541504E0,5.213358765E0,2.395618286E0,8.089318648E0
4.720644917E0,-5.791606293E0,5.811664581E0,1.346150665E0,8.314461514E0
4.730596917E0,-5.723797302E0,6.142776031E0,1.159189453E0,8.475805160E0
4.740549917E0,-5.462440796E0,6.448141022E0,1.093925171E0,8.521352848E0
4.750502917E0,-5.312303009E0,6.573430481E0,5.592370605E-1,8.470141536E0
4.760454917E0,-5.611830139E0,6.146817627E0,3.013233948E-1,8.328673378E0
4.770407917E0,-5.864804077E0,5.699398041E0,4.523593140E-1,8.190463591E0
4.780359917E0,-5.514831848E0,5.718558197E0,1.242865448E0,8.041143743E0
4.790312917E0,-4.952301636E0,6.038592682E0,2.072140961E0,8.079830520E0
4.800265917E0,-4.672982483E0,6.584507446E0,1.490001526E0,8.210518141E0
4.810217917E0,-4.638554077E0,7.490722961E0,4.382885742E-1,8.821519783E0
4.820170917E0,-4.706812134E0,8.360564117E0,2.805166626E-1,9.598531264E0
4.830122917E0,-4.703369293E0,8.573122101E0,1.110989685E0,9.841463476E0
4.840075917E0,-4.600533142E0,8.213120728E0,1.783391418E0,9.581270387E0
4.850028917E0,-4.533173218E0,7.936645660E0,1.603465576E0,9.279606975E0
4.859980917E0,-4.425397339E0,7.480244751E0,2.096390533E0,8.940528866E0
4.869933917E0,-4.473896484E0,6.985373840E0,2.298919373E0,8.607916573E0
4.879885917E0,-4.505331116E0,6.555916901E0,2.126178589E0,8.233996008E0
4.889838917E0,-4.507127380E0,6.110143890E0,2.005978546E0,7.853152584E0
4.899791917E0,-4.764891357E0,5.915249176E0,1.653760986E0,7.773627716E0
4.909743917E0,-5.479355621E0,6.282884674E0,9.312135315E-1,8.388392963E0
4.919696917E0,-6.350693665E0,6.905739441E0,-1.923500061E-1,9.383898218E0
4.929648917E0,-7.235803070E0,7.366481323E0,1.297801208E-1,1.032660332E1
4.939601917E0,-8.089477844E0,7.874225464E0,3.212319946E-1,1.129363841E1
4.949554917E0,-8.945547638E0,8.353079681E0,2.872526550E-1,1.224251922E1
4.959506917E0,-9.221274261E0,8.642877045E0,2.276765442E-1,1.264053239E1
4.969459917E0,-8.727750549E0,8.770262146E0,2.830613708E-1,1.237623737E1
4.979411917E0,-7.783813477E0,8.461005249E0,5.740562439E-1,1.151112082E1
4.989364917E0,-6.864275665E0,8.058192902E0,1.201850739E0,1.065350639E1
4.999317917E0,-6.041586456E0,7.969277802E0,1.932182007E0,1.018545448E1
5.009269917E0,-5.324278107E0,8.160130920E0,1.763632507E0,9.901821732E0
5.019222917E0,-5.185666351E0,8.307274933E0,6.924600220E-1,9.817405625E0
5.029174917E0,-5.590574341E0,8.205486603E0,-5.111869812E-1,9.942124722E0
5.039127917E0,-6.090534668E0,7.972271576E0,-1.180145874E0,1.010170634E1
5.049080917E0,-6.473438416E0,7.624993744E0,-1.497485962E0,1.011377272E1
5.059032917E0,-6.885082397E0,7.031627655E0,-1.257984009E0,9.921223254E0
5.068985917E0,-6.998995514E0,6.834188232E0,-2.324665833E-1,9.784994007E0
5.078937917E0,-6.790778503E0,7.126829681E0,3.933819580E-1,9.851960381E0
5.088890917E0,-6.675069122E0,7.857759705E0,5.689668274E-1,1.032592168E1
5.098843917E0,-6.862180023E0,8.386759644E0,8.548722839E-1,1.087005329E1
5.108795917E0,-7.273225250E0,8.741970978E0,5.855822754E-1,1.138704390E1
5.118748917E0,-7.689060516E0,8.862171021E0,3.722758484E-1,1.173875275E1
5.128700917E0,-7.777227173E0,9.092092896E0,5.409750366E-1,1.197681384E1
5.138653917E0,-7.675139465E0,9.164991302E0,7.554789734E-1,1.197812923E1
5.148606917E0,-7.670499115E0,9.021888885E0,4.926255798E-1,1.185216080E1
5.158558917E0,-7.670798492E0,8.927285614E0,-9.879455566E-2,1.177061334E1
5.168511417E0,-7.651189270E0,8.690028992E0,-2.995271301E-1,1.158218536E1
5.178463417E0,-7.539970551E0,8.163274384E0,-1.106199646E-1,1.111316523E1
5.188416417E0,-7.416327667E0,7.509733429E0,2.917433167E-1,1.055855702E1
5.198369417E0,-7.216642914E0,6.960525513E0,9.271719360E-1,1.006918558E1
5.208321417E0,-6.828649750E0,6.739734650E0,1.485361176E0,9.708799018E0
5.218274417E0,-6.372099152E0,6.829996948E0,1.766775970E0,9.506524246E0
5.228226417E0,-6.020779724E0,7.039411469E0,1.656455383E0,9.409938722E0
5.238179417E0,-5.771697693E0,7.268884277E0,1.443148956E0,9.393181133E0
5.248132417E0,-5.597460022E0,7.460485840E0,1.294957123E0,9.416332705E0
5.258084417E0,-5.475314026E0,7.441325684E0,9.665400696E-1,9.289057612E0
5.268037417E0,-5.433251495E0,7.335495758E0,5.379812622E-1,9.144350369E0
5.277989417E0,-5.489833832E0,7.374714203E0,1.029858398E-1,9.194307541E0
5.287942417E0,-5.388793945E0,7.688461761E0,-4.147874451E-1,9.398063262E0
5.297895417E0,-5.171894989E0,8.051307220E0,-6.533912659E-1,9.591609139E0
5.307847417E0,-4.996310120E0,8.276888123E0,-5.307962036E-1,9.682548033E0
5.317800417E0,-4.822970581E0,8.372838593E0,-4.161346436E-1,9.671537590E0
5.327752417E0,-4.525838470E0,8.376580811E0,-1.305285645E-1,9.521940855E0
5.337705417E0,-4.188889160E0,8.402027893E0,8.801696777E-2,9.388749230E0
5.347658417E0,-4.076472931E0,8.498427429E0,1.350192261E-1,9.426512108E0
5.357610417E0,-4.174369354E0,8.459807739E0,6.301895142E-2,9.433858059E0
5.367563417E0,-4.370611267E0,8.317753143E0,2.634521484E-2,9.396166999E0
5.377515417E0,-4.592449951E0,8.225095825E0,2.155517578E-2,9.420364245E0
5.387468417E0,-4.698429565E0,8.310418396E0,-1.175056458E-1,9.547360990E0
5.397421417E0,-4.598886566E0,8.652457123E0,-1.483415222E-1,9.799835566E0
5.407373417E0,-4.436474304E0,9.019344177E0,-2.109114075E-1,1.005362409E1
5.417326417E0,-4.377946014E0,9.341324615E0,-4.146377563E-1,1.032466374E1
5.427278417E0,-4.404590607E0,9.613009644E0,-6.396199036E-1,1.059336993E1
5.437231417E0,-4.411476288E0,9.685159607E0,-7.849676514E-1,1.067143917E1
5.447184417E0,-4.421355743E0,9.537865906E0,-7.063810730E-1,1.053651968E1
5.457136417E0,-4.391867065E0,9.330996094E0,-3.760180664E-1,1.031975649E1
5.467089417E0,-4.322411499E0,9.059909821E0,-2.740800476E-1,1.004192845E1
5.477042417E0,-4.209396515E0,8.831035767E0,-3.227288818E-1,9.788276951E0
5.486994417E0,-4.077820129E0,8.655899963E0,-2.920426941E-1,9.572800537E0
5.496947417E0,-4.011957092E0,8.530460815E0,-4.321513367E-1,9.436700494E0
5.506899417E0,-4.015100555E0,8.460556183E0,-6.647676086E-1,9.388501444E0
5.516852417E0,-4.191583557E0,8.483308868E0,-6.688092041E-1,9.485947914E0
5.526805417E0,-4.457730103E0,8.521329803E0,-6.601272583E-1,9.639511776E0
5.536757417E0,-4.800816650E0,8.603209534E0,-8.035290527E-1,9.884771810E0
5.546710417E0,-5.103636932E0,8.686436462E0,-8.277786255E-1,1.010873413E1
5.556662417E0,-5.170098724E0,8.750652924E0,-3.233276367E-1,1.016899150E1
5.566615417E0,-4.990771637E0,8.858728180E0,8.981323242E-2,1.016823155E1
5.576568417E0,-4.774920502E0,8.949439545E0,1.133143616E-1,1.014421875E1
5.586520417E0,-4.606670380E0,8.972940674E0,-5.059478760E-2,1.008650763E1
5.596473417E0,-4.520898743E0,8.854836273E0,5.987548828E-2,9.942345596E0
5.606425417E0,-4.714146881E0,8.509654083E0,2.106120300E-1,9.730454813E0
5.616378417E0,-5.037624207E0,8.049211578E0,5.325924683E-1,9.510579342E0
5.626331417E0,-5.359604645E0,7.786807251E0,1.140927429E0,9.521630349E0
5.636283417E0,-5.633385315E0,7.699089661E0,1.551074524E0,9.665238946E0
5.646236417E0,-5.682333527E0,7.857909393E0,1.852996674E0,9.872651671E0
5.656188417E0,-5.397625580E0,8.229137421E0,1.813179474E0,1.000703175E1
5.666141417E0,-4.989424438E0,8.490044861E0,1.562600555E0,9.970804304E0
5.676094417E0,-4.665647736E0,8.482111359E0,1.343456268E0,9.773400464E0
5.686046417E0,-4.589007111E0,8.250093842E0,1.076112213E0,9.501634183E0
5.695999417E0,-4.743785248E0,7.913144531E0,8.267308044E-1,9.263090125E0
5.705951417E0,-4.939428406E0,7.833510132E0,7.126679993E-1,9.288149958E0
5.715904417E0,-5.022056580E0,8.192763062E0,8.226892090E-1,9.644648071E0
5.725857417E0,-5.071453857E0,8.646469574E0,9.455836487E-1,1.006852565E1
5.735809417E0,-5.083129578E0,9.182355194E0,1.236877899E0,1.056805186E1
5.745762417E0,-5.024900665E0,9.743987274E0,1.408570862E0,1.105346039E1
5.755714417E0,-4.848417664E0,1.016760635E1,1.216969299E0,1.132997736E1
5.765667417E0,-4.644841003E0,1.035711227E1,9.300160217E-1,1.138899699E1
5.775620417E0,-4.467310181E0,1.031579819E1,6.547384644E-1,1.126060544E1
5.785572417E0,-4.367168427E0,1.016221756E1,4.120930481E-1,1.106854311E1
5.795525417E0,-4.383035431E0,9.953252106E0,3.564088440E-1,1.088141785E1
5.805477417E0,-4.434079285E0,9.789043579E0,3.911366272E-1,1.075357713E1
5.815430417E0,-4.456532593E0,9.700128479E0,3.998185730E-1,1.068237006E1
5.825383417E0,-4.393813019E0,9.554032288E0,4.266128540E-1,1.052459616E1
5.835335417E0,-4.260440369E0,9.323062592E0,3.972738647E-1,1.025810288E1
5.845288417E0,-4.055067444E0,9.135352936E0,3.279679871E-1,1.000029041E1
5.855241417E0,-3.871100006E0,9.002429352E0,1.811233521E-1,9.801120097E0
5.865193417E0,-3.833977203E0,8.934021606E0,2.260299683E-2,9.721966579E0
5.875146417E0,-3.863166504E0,8.869206390E0,-1.222956848E-1,9.674804063E0
5.885098417E0,-3.968996429E0,8.781638489E0,-1.899549866E-1,9.638785717E0
5.895051417E0,-4.144581299E0,8.605454865E0,-1.589694214E-1,9.552836168E0
5.905004417E0,-4.378993835E0,8.386160889E0,-1.679507446E-1,9.462108059E0
5.914956417E0,-4.553381195E0,8.200846252E0,-1.923500061E-1,9.382119062E0
5.924909417E0,-4.732259216E0,7.998018036E0,-2.764750671E-1,9.297258104E0
5.934861417E0,-4.914280701E0,7.806566162E0,-4.492158508E-1,9.235498088E0
5.944814417E0,-5.117857361E0,7.671846313E0,-7.427554321E-1,9.252101137E0
5.954767417E0,-5.310806122E0,7.793842621E0,-1.039737854E0,9.488398140E0
5.964719417E0,-5.474715271E0,8.085436249E0,-1.285975800E0,9.848884220E0
5.974672417E0,-5.713169403E0,8.379574585E0,-1.277443542E0,1.022200748E1
5.984624417E0,-5.972729645E0,8.592881012E0,-1.048868866E0,1.051718733E1
5.994577417E0,-6.084397430E0,8.814570007E0,-5.499563599E-1,1.072469060E1
6.004530417E0,-6.271957397E0,8.995094604E0,-7.065307617E-1,1.098855597E1
6.014482417E0,-6.608757019E0,8.968300323E0,-1.158590698E0,1.120037555E1
6.024435417E0,-6.857539673E0,8.725205841E0,-1.139580231E0,1.115588232E1
6.034387417E0,-6.853348389E0,8.203540649E0,-6.981481934E-1,1.071232347E1
6.044340417E0,-6.513105927E0,7.852071533E0,-2.978805542E-1,1.020609176E1
6.054293417E0,-5.971382446E0,7.908204803E0,-3.942800903E-1,9.917286339E0
6.064245417E0,-5.560636597E0,8.384963379E0,-9.162446594E-1,1.010286071E1
6.074198417E0,-5.436394958E0,8.791368256E0,-1.224453735E0,1.040873830E1
6.084150417E0,-5.367388458E0,8.910969543E0,-1.097667389E0,1.046035902E1
6.094103417E0,-5.177882538E0,8.907975769E0,-8.240364075E-1,1.033641794E1
6.104056417E0,-5.015021210E0,8.585546265E0,-6.288423157E-1,9.962805080E0
6.114008417E0,-4.923711090E0,8.141719208E0,-5.616320801E-1,9.531314345E0
6.123961417E0,-5.060227203E0,7.562573547E0,-4.571493530E-1,9.110839892E0
6.133914417E0,-5.361700287E0,6.855893097E0,-2.546205139E-1,8.707234448E0
6.143866417E0,-5.480553131E0,6.396648102E0,-4.026626587E-2,8.423490425E0
6.153819417E0,-5.333558807E0,6.361171875E0,-3.038681030E-2,8.301342092E0
6.163771417E0,-5.119204559E0,6.583908691E0,-9.999206543E-2,8.340510020E0
6.173724583E0,-4.643493805E0,7.108118591E0,-1.272354126E-2,8.490438535E0
6.183677583E0,-4.245770874E0,7.663912811E0,2.049238586E-1,8.763796191E0
6.193629583E0,-4.109105072E0,7.946375427E0,2.688409424E-1,8.949966613E0
6.203582583E0,-4.174519043E0,7.930658112E0,2.612068176E-1,8.966056899E0
6.213534583E0,-4.408781891E0,7.552694092E0,6.511459351E-2,8.745558056E0
6.223487583E0,-4.622687073E0,7.135960693E0,-1.781295776E-1,8.504287209E0
6.233440583E0,-4.616100769E0,6.893165588E0,-1.676513672E-1,8.297724093E0
6.243392583E0,-4.343816986E0,6.769672394E0,2.559677124E-2,8.043498339E0
6.253345583E0,-3.822600861E0,6.905290375E0,-2.263293457E-1,7.895982363E0
6.263297583E0,-3.508254547E0,7.000043335E0,-7.454498291E-1,7.865376794E0
6.273250583E0,-3.492537231E0,7.049290924E0,-9.828561401E-1,7.928198095E0
6.283203583E0,-3.613635406E0,7.286547546E0,-1.027014313E0,8.197981117E0
6.293155583E0,-3.817960510E0,7.420069885E0,-9.394464111E-1,8.397429316E0
6.303108583E0,-3.850592651E0,7.669900360E0,-9.518705750E-1,8.634841799E0
6.313060583E0,-3.831582184E0,7.842042389E0,-1.372495880E0,8.835292627E0
6.323013583E0,-3.950435028E0,8.086035004E0,-1.819616089E0,9.181552249E0
6.332966583E0,-4.389921112E0,8.211474152E0,-1.543290710E0,9.438297586E0
6.342918583E0,-4.611161041E0,8.290509796E0,-7.159611511E-1,9.513567112E0
6.352871583E0,-4.424499207E0,8.386310577E0,-7.752378845E-1,9.513537308E0
6.362824583E0,-4.253404999E0,8.398435364E0,-1.429078217E0,9.521944927E0
6.372776583E0,-4.216581573E0,8.243657227E0,-1.842817841E0,9.441049848E0
6.382729583E0,-4.361180878E0,8.057145081E0,-2.235151978E0,9.430450141E0
6.392681583E0,-4.379592590E0,8.052804108E0,-2.091899872E0,9.402368336E0
6.402634583E0,-4.037853241E0,8.094417572E0,-1.855691071E0,9.234037252E0
6.412587583E0,-3.548520813E0,8.211474152E0,-2.201621704E0,9.212352893E0
6.422539583E0,-3.356170807E0,8.128247223E0,-2.361040192E0,9.105316919E0
6.432492583E0,-3.415746918E0,7.893834686E0,-2.559677124E0,8.973956766E0
6.442444583E0,-3.469634857E0,7.938591614E0,-2.589016113E0,9.042267818E0
6.452397583E0,-3.543730774E0,8.144712982E0,-2.367177429E0,9.192274275E0
6.462350583E0,-3.568279724E0,8.396040344E0,-2.086062012E0,9.358299438E0
6.472302583E0,-3.449426880E0,8.589737549E0,-1.713935852E0,9.413804388E0
6.482255583E0,-3.303929443E0,8.819060669E0,-1.731599121E0,9.575500841E0
6.492207583E0,-3.148851929E0,9.129664764E0,-1.908830566E0,9.844271497E0
6.502160583E0,-2.692301331E0,9.172924805E0,-2.284249878E0,9.828979267E0
6.512113583E0,-2.187550964E0,9.413175201E0,-3.466491394E0,1.026692793E1
6.522065583E0,-2.379152527E0,9.288334808E0,-4.015399933E0,1.039504530E1
6.532018583E0,-2.736010437E0,9.285041656E0,-3.695365448E0,1.036115232E1
6.541970583E0,-3.171155548E0,9.042246552E0,-3.703748016E0,1.027308131E1
6.551923583E0,-3.519481201E0,8.541088715E0,-4.209845581E0,1.015183452E1
6.561876583E0,-3.460653534E0,8.254285126E0,-5.147495728E0,1.032502097E1
6.571828583E0,-3.774401093E0,7.801327057E0,-5.848787384E0,1.045538719E1
6.581781583E0,-4.223616943E0,7.520511017E0,-5.649551697E0,1.031089038E1
6.591734583E0,-4.274810486E0,7.369624786E0,-5.563480682E0,1.017534724E1
6.601686583E0,-3.959865417E0,7.502997437E0,-5.947282562E0,1.036077577E1
6.611639583E0,-3.436403961E0,8.229287109E0,-6.196813660E0,1.085958277E1
6.621591583E0,-2.841840363E0,8.921148376E0,-6.800657959E0,1.157203066E1
6.631544583E0,-2.486030273E0,8.677904205E0,-7.593708801E0,1.179621894E1
6.641497583E0,-2.347119141E0,8.159981232E0,-7.967481537E0,1.164366884E1
6.651449583E0,-2.416574707E0,8.278834076E0,-8.499026184E0,1.210835963E1
6.661402583E0,-3.013683014E0,8.448281708E0,-9.142238617E0,1.280766474E1
6.671354583E0,-3.983516235E0,8.362210693E0,-9.020541687E0,1.292923593E1
6.681307583E0,-4.711901550E0,7.980504456E0,-8.424930267E0,1.252477216E1
6.691260583E0,-4.839885406E0,7.980055389E0,-7.954159241E0,1.226272498E1
6.701212583E0,-4.351451111E0,8.560847626E0,-6.767726440E0,1.174841947E1
6.711165583E0,-3.307372284E0,9.025631104E0,-5.776936798E0,1.121488863E1
6.721117583E0,-1.977837067E0,9.037157135E0,-6.530619507E0,1.132391450E1
6.731070583E0,-1.179696808E0,8.865763550E0,-6.829098816E0,1.125300131E1
6.741023583E0,-1.466201019E0,8.322543182E0,-6.218219147E0,1.049193594E1
6.750975583E0,-2.492167511E0,7.600744171E0,-5.607040100E0,9.768372922E0
6.760928583E0,-3.544479218E0,7.543413391E0,-4.693789215E0,9.565462650E0
6.770881583E0,-4.319417725E0,8.091723175E0,-4.420906677E0,1.018222811E1
6.780833583E0,-4.892126770E0,8.867110748E0,-4.109853516E0,1.092929336E1
6.790786583E0,-5.250032501E0,9.248367920E0,-4.142635345E0,1.141300040E1
6.800738583E0,-5.405409393E0,8.954528961E0,-6.420747986E0,1.227306173E1
6.810691583E0,-5.113516388E0,7.972421265E0,-6.468648376E0,1.146956680E1
6.820644583E0,-3.935316467E0,6.313271484E0,-4.786296844E0,8.846058445E0
6.830596583E0,-2.247426453E0,5.057532806E0,-4.067940674E0,6.868602847E0
6.840549583E0,-6.944059753E-1,4.681963806E0,-4.394561462E0,6.458727056E0
6.850501583E0,2.749781799E-1,4.466861115E0,-5.431754608E0,7.037927205E0
6.860454583E0,7.985893250E-1,4.425397339E0,-6.918163605E0,8.251234706E0
6.870407583E0,1.411714325E0,4.867727509E0,-8.630153503E0,1.000835940E1
6.880359583E0,2.229912872E0,5.299729156E0,-9.114845581E0,1.077682934E1
6.890312583E0,2.933300171E0,5.442083130E0,-8.521030426E0,1.052751054E1
6.900264583E0,3.374133453E0,5.233566742E0,-7.561825104E0,9.795723368E0
6.910217583E0,2.616858215E0,4.647535400E0,-7.476502533E0,9.183987279E0
6.920170583E0,9.412426758E-1,4.155059509E0,-7.473808136E0,8.602805668E0
6.930122583E0,-7.921527100E-1,3.983815613E0,-7.549550629E0,8.572864600E0
6.940075583E0,-1.948947144E0,4.303401031E0,-7.666756897E0,9.005377101E0
6.950027583E0,-2.798430634E0,5.014721832E0,-7.713160400E0,9.616209879E0
6.959980583E0,-2.844085693E0,5.441933441E0,-7.738607483E0,9.878740243E0
6.969933583E0,-2.374212799E0,4.963228912E0,-7.827971649E0,9.568054546E0
6.979885583E0,-1.743574219E0,3.702700195E0,-8.296497345E0,9.251049021E0
6.989838583E0,-1.433868256E0,2.525548096E0,-7.150480499E0,7.717755032E0
6.999790583E0,1.443598022E0,3.179089050E0,-6.593937836E0,7.461273257E0
7.009743583E0,2.100432129E0,4.452341309E0,-6.352190552E0,8.036509383E0
7.019696583E0,1.166973267E0,6.171366577E0,-6.353088684E0,8.933606655E0
7.029648583E0,3.477268982E-1,7.928562469E0,-5.323829041E0,9.556472805E0
7.039601583E0,-2.856060791E-1,9.729018402E0,1.816472626E0,9.901259652E0
7.049554583E0,-3.183729401E0,7.608378296E0,-1.968795868E1,2.134570847E1
7.059506583E0,-2.809507599E0,9.355545044E-1,-1.278955399E1,1.312788202E1
7.069459583E0,-9.596543884E-1,2.870879974E0,-9.333540802E0,9.812128835E0
7.079411583E0,-1.496587830E0,4.588707733E0,-1.037672150E1,1.144431574E1
7.089364583E0,-2.811752930E0,4.838837585E0,-1.187555466E1,1.312817970E1
7.099317583E0,-3.184627533E0,5.586532745E0,-1.356045090E1,1.500789889E1
7.109269583E0,-1.857038269E0,6.912325745E0,-1.320134766E1,1.501680453E1
7.119222583E0,-1.079105988E0,7.307354279E0,-1.246023880E1,1.448514574E1
7.129174583E0,-1.683099976E0,7.272626495E0,-1.109178452E1,1.336980200E1
7.139127583E0,-2.045346680E0,7.666457520E0,-9.717492371E0,1.254542434E1
7.149080583E0,-2.570754089E0,5.924978943E0,-9.073082428E0,1.113709912E1
7.159032583E0,-2.572700043E0,5.088668060E0,-8.646020508E0,1.035697826E1
7.168985083E0,-3.006497955E0,5.570516052E0,-8.791517944E0,1.083330360E1
7.178937083E0,-2.925516357E0,5.743855591E0,-8.776998138E0,1.088972999E1
7.188890083E0,-2.633623352E0,5.441484375E0,-8.180638275E0,1.017195000E1
7.198843083E0,-2.275418243E0,4.929998016E0,-7.864346008E0,9.556691204E0
7.208795083E0,-1.783391418E0,4.721032562E0,-8.192613373E0,9.622242321E0
7.218748083E0,-1.772464142E0,4.820725250E0,-8.750054169E0,1.014615538E1
7.228700083E0,-1.799557800E0,5.244793396E0,-8.720565491E0,1.033414382E1
7.238653083E0,-2.068249054E0,5.883664856E0,-8.567284241E0,1.059686395E1
7.248606083E0,-2.531385956E0,6.326893158E0,-8.121062164E0,1.060137456E1
7.258558083E0,-2.446063385E0,6.407276001E0,-8.380173340E0,1.082883729E1
7.268511083E0,-2.164049835E0,6.649172974E0,-8.859776001E0,1.128672865E1
7.278464083E0,-1.878294067E0,6.934030609E0,-9.011111298E0,1.152427420E1
7.288416083E0,-1.451082458E0,6.874454498E0,-9.465416565E0,1.178803952E1
7.298369083E0,-1.385518799E0,6.481820984E0,-1.023990601E1,1.219792362E1
7.308321083E0,-1.417552185E0,5.696404266E0,-1.031639694E1,1.186956282E1
7.318274083E0,-1.080602875E0,5.442232819E0,-9.542057190E0,1.103795525E1
7.328227083E0,-7.072792053E-1,5.063670044E0,-8.921447754E0,1.028266640E1
7.338179083E0,-9.012757874E-1,4.515060883E0,-9.235494690E0,1.031951719E1
7.348132083E0,-1.129850464E0,4.274211731E0,-9.502838745E0,1.048090608E1
7.358084083E0,-1.274599457E0,3.923940125E0,-9.385482788E0,1.025227765E1
7.368037083E0,-1.546134796E0,3.828887787E0,-9.317524109E0,1.019152442E1
7.377990083E0,-1.742676086E0,4.152814178E0,-9.134754181E0,1.018462172E1
7.387942083E0,-1.604513397E0,4.445605316E0,-8.896000671E0,1.007356431E1
7.397895083E0,-1.349743195E0,4.738845520E0,-8.714278564E0,1.001084984E1
7.407847083E0,-1.361119537E0,5.075345764E0,-8.484506378E0,9.979911297E0
7.417800083E0,-1.522933044E0,5.445376282E0,-8.194709015E0,9.956138998E0
7.427753083E0,-1.494192810E0,6.301595764E0,-8.704848175E0,1.084975129E1
7.437705083E0,-1.377435608E0,7.006629639E0,-9.160800018E0,1.161509555E1
7.447658083E0,-1.410965881E0,7.747139740E0,-8.475375366E0,1.156896653E1
7.457610083E0,-1.814826050E0,8.566984863E0,-7.376510468E0,1.144987904E1
7.467563083E0,-2.515518951E0,8.742719421E0,-7.048093414E0,1.150819705E1
7.477516083E0,-2.538421326E0,8.418942719E0,-7.753276978E0,1.172328807E1
7.487468083E0,-2.040706329E0,7.310797119E0,-8.969797211E0,1.175029782E1
7.497421083E0,-1.949845276E0,6.963219910E0,-9.653275909E0,1.206126295E1
7.507373083E0,-1.738484802E0,6.531218262E0,-8.091872864E0,1.054312799E1
7.517326083E0,-1.403930511E0,5.263803864E0,-5.850733337E0,7.994356296E0
7.527279083E0,-1.614392853E0,4.277355194E0,-5.414540405E0,7.086556254E0
7.537231083E0,-2.079326019E0,4.127067719E0,-8.358468475E0,9.550930839E0
7.547184083E0,-2.422711945E0,5.060077515E0,-1.081007034E1,1.217914358E1
7.557137083E0,-2.366728363E0,7.078929291E0,-1.146660507E1,1.368194704E1
7.567089083E0,-2.062111816E0,8.200846252E0,-1.102876556E1,1.389747654E1
7.577042083E0,-1.694626007E0,8.259075165E0,-9.513616333E0,1.271192258E1
7.586994083E0,-1.750160522E0,7.094796295E0,-6.186784515E0,9.574732318E0
7.596947083E0,-2.186802521E0,7.256909180E0,-6.939419403E0,1.027620444E1
7.606900083E0,-2.415676575E0,7.266040192E0,-7.269183655E0,1.055802370E1
7.616852083E0,-2.295626221E0,6.868766327E0,-6.118227081E0,9.480640971E0
7.626805083E0,-1.973047028E0,6.764283600E0,-6.115532684E0,9.329961801E0
7.636757083E0,-1.560355225E0,6.763984222E0,-6.733447723E0,9.670858764E0
7.646710083E0,-1.510359192E0,6.575077057E0,-6.280639343E0,9.217334417E0
7.656663083E0,-1.562151489E0,5.998775482E0,-5.990692291E0,8.620557911E0
7.666615083E0,-1.599423981E0,5.893394623E0,-5.924080811E0,8.507936924E0
7.676568083E0,-2.022593994E0,6.264922028E0,-5.768703918E0,8.753175388E0
7.686520083E0,-2.487976227E0,6.517746277E0,-5.571414185E0,8.928140806E0
7.696473083E0,-2.741848297E0,6.565496979E0,-5.795947266E0,9.176954144E0
7.706426083E0,-2.719993744E0,6.841672668E0,-5.889951782E0,9.428593897E0
7.716378083E0,-2.591860199E0,6.971752167E0,-6.096821594E0,9.617395755E0
7.726331083E0,-2.509830780E0,7.115004272E0,-6.680158539E0,1.007705584E1
7.736283083E0,-2.339934082E0,7.328161011E0,-6.837331696E0,1.029205227E1
7.746236083E0,-2.032623138E0,7.377707977E0,-6.554869080E0,1.007613222E1
7.756189083E0,-1.727108459E0,7.089407501E0,-6.262077942E0,9.615415878E0
7.766141083E0,-1.688488770E0,6.598428497E0,-6.046376495E0,9.107629861E0
7.776094083E0,-1.528471527E0,6.276448059E0,-6.117029572E0,8.896520456E0
7.786046083E0,-1.401236115E0,6.578220520E0,-6.203250275E0,9.149686433E0
7.795999083E0,-1.464554443E0,6.509064331E0,-6.266568604E0,9.153290132E0
7.805952083E0,-1.563498688E0,6.248755646E0,-6.086942139E0,8.862411628E0
7.815904083E0,-1.465452576E0,6.238427124E0,-6.021827545E0,8.793630150E0
7.825857083E0,-1.164578247E0,6.234984283E0,-6.165977783E0,8.845934294E0
7.835809083E0,-8.616082764E-1,6.216572571E0,-6.933282166E0,9.351927338E0
7.845762083E0,-8.319699097E-1,6.438261566E0,-7.967182159E0,1.027712885E1
7.855715083E0,-7.484436035E-1,6.644832001E0,-9.331894226E0,1.148034015E1
7.865667083E0,-5.607339478E-1,6.664441223E0,-1.013467484E1,1.214252171E1
7.875620083E0,-4.248165894E-1,6.535708923E0,-1.028376480E1,1.219228357E1
7.885573083E0,-7.393125916E-1,6.696624298E0,-9.974358215E0,1.203657684E1
7.895525083E0,-1.420396271E0,6.903643799E0,-9.368567963E0,1.172381717E1
7.905478083E0,-1.876198425E0,7.376211090E0,-8.737779694E0,1.158781276E1
7.915430083E0,-2.175875244E0,7.336842957E0,-7.781717834E0,1.091415732E1
7.925383083E0,-2.235151978E0,6.776558075E0,-7.251221008E0,1.017338930E1
7.935336083E0,-1.563798065E0,6.483317871E0,-6.486760712E0,9.303598204E0
7.945288083E0,-1.352437592E0,6.939718781E0,-6.303242340E0,9.472045618E0
7.955241083E0,-1.744921417E0,6.108647003E0,-6.259982300E0,8.918951584E0
7.965193083E0,-1.737586670E0,5.711672516E0,-5.972280579E0,8.444557163E0
7.975146083E0,-1.719624023E0,5.684279480E0,-5.910908203E0,8.378960304E0
7.985099083E0,-1.629212036E0,5.762866058E0,-5.855074310E0,8.375371768E0
7.995051083E0,-1.754651184E0,5.709277496E0,-6.201304321E0,8.609925992E0
8.005004083E0,-1.670376434E0,5.907465363E0,-6.488107910E0,8.932180512E0
8.014956083E0,-1.395248566E0,6.375991058E0,-6.659950562E0,9.324962307E0
8.024909083E0,-1.156195679E0,6.638844452E0,-6.369554443E0,9.272662396E0
8.034862083E0,-1.111738129E0,6.735543365E0,-6.172414398E0,9.203380118E0
8.044814083E0,-1.558858337E0,6.438710632E0,-5.820346527E0,8.818359690E0
8.054767083E0,-2.030228119E0,6.044131165E0,-5.680237885E0,8.539230069E0
8.064719083E0,-2.256856842E0,5.636678467E0,-6.060746613E0,8.578939121E0
8.074672083E0,-2.471660156E0,5.560037842E0,-6.116430817E0,8.627505472E0
8.084625083E0,-2.813399506E0,5.737718353E0,-6.841822357E0,9.362006294E0
8.094577083E0,-2.862946472E0,6.305487671E0,-7.448959808E0,1.017067547E1
8.104530083E0,-2.670895844E0,6.283483429E0,-6.941664734E0,9.736660510E0
8.114482083E0,-2.141147461E0,6.359674988E0,-5.010081482E0,8.374419076E0
8.124435083E0,-2.520608368E0,7.073241119E0,-6.365363159E0,9.843884123E0
8.134388083E0,-3.640279999E0,6.960824890E0,-7.157964935E0,1.062737896E1
8.144340083E0,-3.947441254E0,5.993835754E0,-6.951843567E0,9.991821079E0
8.154293083E0,-3.525019684E0,5.694458313E0,-6.640790405E0,9.431474776E0
8.164245083E0,-4.063150635E0,5.689967651E0,-6.902296600E0,9.824796350E0
8.174198292E0,-4.811444550E0,5.642666016E0,-6.821015625E0,1.007551153E1
8.184151292E0,-4.571044464E0,5.697452087E0,-7.763755188E0,1.065979842E1
8.194103292E0,-4.416416016E0,5.496420135E0,-7.667056274E0,1.041629093E1
8.204056292E0,-4.502487030E0,5.467081146E0,-7.206015015E0,1.010386154E1
8.214008292E0,-4.308041382E0,5.645510101E0,-7.261100464E0,1.015650456E1
8.223961292E0,-4.127367096E0,5.782774658E0,-7.537276154E0,1.035790392E1
8.233914292E0,-3.177143097E0,5.684728546E0,-7.523055725E0,9.950213281E0
8.243866292E0,-2.486629028E0,5.655838623E0,-6.808292084E0,9.193730231E0
8.253819292E0,-2.138453064E0,5.683081970E0,-6.441255341E0,8.852128137E0
8.263772292E0,-2.092947693E0,5.916746063E0,-7.345375214E0,9.661410407E0
8.273724292E0,-2.089205475E0,5.850433960E0,-7.160958710E0,9.480067863E0
8.283677292E0,-2.656076660E0,5.514233093E0,-7.082821198E0,9.360975694E0
8.293629292E0,-3.028053131E0,5.241799622E0,-7.473508759E0,9.617634959E0
8.303582292E0,-3.786825256E0,5.310057678E0,-7.782316589E0,1.015387658E1
8.313535292E0,-3.689826965E0,4.992867279E0,-7.627987518E0,9.835127873E0
8.323487292E0,-3.466641083E0,4.828658752E0,-6.857389984E0,9.075094663E0
8.333440292E0,-3.158132629E0,4.681365051E0,-6.029461670E0,8.260955664E0
8.343392292E0,-3.183879089E0,4.540058899E0,-5.705086212E0,7.955955603E0
8.353345292E0,-3.131338348E0,4.474345551E0,-5.410798187E0,7.687768531E0
8.363298292E0,-3.267704773E0,4.682861938E0,-4.862488403E0,7.500058926E0
8.373250292E0,-3.547922058E0,4.645290070E0,-5.809568939E0,8.241211199E0
8.383203292E0,-3.936364288E0,4.707560577E0,-7.206164703E0,9.464930012E0
8.393155292E0,-3.855831757E0,5.265899506E0,-8.486751709E0,1.070617068E1
8.403108292E0,-3.060834961E0,5.750441895E0,-1.009845016E1,1.201727874E1
8.413061292E0,-2.030377808E0,6.148913269E0,-1.104657852E1,1.280462672E1
8.423013292E0,-1.932930450E0,6.300398254E0,-1.128218857E1,1.306594877E1
8.432966292E0,-2.304008789E0,6.025569763E0,-1.156031021E1,1.323845609E1
8.442918292E0,-3.163072357E0,5.707181854E0,-1.134401001E1,1.308676868E1
8.452871292E0,-3.484004974E0,5.489983521E0,-9.863289185E0,1.181366511E1
8.462824292E0,-3.264860687E0,5.479205933E0,-8.901539154E0,1.095072656E1
8.472776292E0,-3.054847412E0,5.455255737E0,-8.299191742E0,1.039078878E1
8.482729292E0,-3.205883331E0,5.339396667E0,-7.808512115E0,9.987978082E0
8.492681292E0,-3.340453491E0,5.237159271E0,-7.621850281E0,9.832551473E0
8.502634292E0,-3.204685822E0,5.290298767E0,-8.070317688E0,1.016795456E1
8.512587292E0,-2.859803009E0,5.345833282E0,-7.945177917E0,9.994111210E0
8.522539292E0,-2.495760040E0,5.308261414E0,-7.201674042E0,9.288195003E0
8.532492292E0,-2.397264862E0,5.101092224E0,-6.631360016E0,8.703042937E0
8.542444292E0,-2.760559387E0,4.880750427E0,-6.391858063E0,8.502838488E0
8.552397292E0,-3.232378235E0,4.660558319E0,-6.526278534E0,8.646466585E0
8.562350292E0,-3.522624664E0,4.614454193E0,-6.911427612E0,9.026068007E0
8.572302292E0,-3.582500153E0,4.874014435E0,-7.504194946E0,9.638634024E0
8.582255292E0,-3.346141663E0,5.209466858E0,-8.252788239E0,1.031715671E1
8.592207292E0,-3.120261383E0,5.494623871E0,-8.430169373E0,1.053540119E1
8.602160292E0,-3.060685272E0,5.398972778E0,-9.082363129E0,1.100027370E1
8.612113292E0,-2.934497681E0,5.320086823E0,-9.620344391E0,1.137829630E1
8.622065292E0,-3.561094666E0,5.351371765E0,-9.078920288E0,1.112408956E1
8.632018292E0,-4.291425934E0,5.288352814E0,-8.209977264E0,1.066708670E1
8.641970292E0,-4.723876648E0,5.143903198E0,-7.145391083E0,9.991564663E0
8.651923292E0,-4.665048981E0,5.107079773E0,-6.969357147E0,9.819209991E0
8.661876292E0,-4.407584381E0,5.106481018E0,-7.464228058E0,1.006069823E1
8.671828292E0,-4.226011963E0,5.261558533E0,-7.788453827E0,1.030549311E1
8.681781292E0,-4.046984253E0,5.349575500E0,-8.158484344E0,1.056205029E1
8.691733292E0,-3.513194275E0,5.538931732E0,-8.628806305E0,1.083875440E1
8.701686292E0,-2.986289978E0,5.601501617E0,-8.899892578E0,1.093173527E1
8.711639292E0,-2.716251526E0,5.757327576E0,-8.694669342E0,1.077599732E1
8.721591292E0,-2.567460938E0,5.808820496E0,-8.305927734E0,1.045574898E1
8.731544292E0,-2.370021515E0,6.011049957E0,-8.061635742E0,1.033149043E1
8.741496292E0,-2.667752380E0,6.005810852E0,-7.886499939E0,1.026564893E1
8.751449292E0,-3.389102325E0,6.014492798E0,-7.917635193E0,1.050471728E1
8.761402292E0,-3.879781952E0,6.030060425E0,-8.042176208E0,1.077455033E1
8.771354292E0,-3.832180939E0,6.186036072E0,-8.004155273E0,1.081753922E1
8.781307292E0,-3.251538391E0,6.218518524E0,-7.875273285E0,1.054809954E1
8.791260292E0,-2.167043610E0,6.473588104E0,-8.212072906E0,1.067902441E1
8.801212292E0,-1.358574829E0,6.781048737E0,-8.682394867E0,1.110010487E1
8.811165292E0,-1.319955139E0,6.868317261E0,-8.610843658E0,1.109336252E1
8.821117292E0,-1.520687714E0,6.917415161E0,-8.235424347E0,1.086210559E1
8.831070292E0,-1.568288727E0,6.872358856E0,-7.620652771E0,1.038090528E1
8.841022292E0,-1.266815643E0,6.572083282E0,-7.354506226E0,9.944137085E0
8.850975292E0,-9.714797974E-1,6.438860321E0,-7.083120575E0,9.621501562E0
8.860928292E0,-4.105961609E-1,5.980962524E0,-6.206842804E0,8.629333666E0
8.870880292E0,-4.064048767E-1,5.769751740E0,-5.841302948E0,8.220463502E0
8.880833292E0,-1.413809967E0,5.835315399E0,-6.499933319E0,8.848666430E0
8.890785292E0,-1.776805115E0,6.001918945E0,-6.971602478E0,9.369274708E0
8.900738292E0,-1.779050446E0,5.931864624E0,-7.147935791E0,9.457537971E0
8.910691292E0,-1.922452240E0,6.126759338E0,-6.992109833E0,9.493292501E0
8.920643292E0,-2.216291199E0,6.164630585E0,-6.597680054E0,9.297526500E0
8.930596292E0,-2.510878601E0,6.034102020E0,-6.463409271E0,9.191874561E0
8.940549292E0,-3.012335815E0,6.075266418E0,-6.842870178E0,9.633685764E0
8.950501292E0,-3.183430023E0,6.298302612E0,-7.477700043E0,1.028196676E1
8.960454292E0,-3.108286285E0,6.336024170E0,-7.847431183E0,1.055409030E1
8.970406292E0,-2.849624176E0,5.906417542E0,-8.031248932E0,1.036856237E1
8.980359292E0,-2.221979370E0,5.619164886E0,-7.812853088E0,9.876886135E0
8.990312292E0,-1.456920319E0,5.994434509E0,-8.034691772E0,1.012976474E1
9.000264292E0,-4.086502075E-1,7.184310150E0,-8.585995331E0,1.120270606E1
9.010217292E0,3.362008667E-1,8.049510956E0,-8.796307983E0,1.192823087E1
9.020169292E0,6.849755859E-1,8.644074554E0,-8.420439606E0,1.208689454E1
9.030122292E0,9.363029480E-1,8.624016266E0,-7.872429199E0,1.171432718E1
9.040075292E0,9.327104187E-1,7.805668030E0,-7.208260345E0,1.066571232E1
9.050027292E0,6.846762085E-1,7.486381989E0,-6.980284424E0,1.025860943E1
9.059980292E0,-4.909790039E-2,7.582332458E0,-7.334298248E0,1.054922305E1
9.069932292E0,-9.725276184E-1,6.919211426E0,-7.363337860E0,1.015086406E1
9.079885292E0,-1.611848145E0,6.087989960E0,-6.846313019E0,9.302347991E0
9.089838292E0,-2.101779327E0,5.303321686E0,-6.584058380E0,8.711631420E0
9.099790292E0,-2.369123383E0,4.963977356E0,-6.542444916E0,8.547362299E0
9.109743292E0,-2.293380890E0,5.020260315E0,-6.702013092E0,8.682141960E0
9.119695292E0,-1.905537415E0,5.615722046E0,-6.797963562E0,9.021070642E0
9.129648292E0,-1.278940430E0,6.191873932E0,-6.321055298E0,8.940398844E0
9.139601292E0,-6.183641052E-1,6.511908417E0,-6.338119812E0,9.108187973E0
9.149553292E0,-6.765930176E-2,7.099286957E0,-6.392456818E0,9.553426466E0
9.159506292E0,3.588038635E-1,7.893834686E0,-6.522236938E0,1.024602074E1
9.169458292E0,6.041436768E-1,8.191266174E0,-6.347999268E0,1.038069968E1
9.179411458E0,6.797364807E-1,8.206235046E0,-6.023623810E0,1.020237125E1
9.189364458E0,6.378236389E-1,8.042924652E0,-5.769751740E0,9.918946067E0
9.199316458E0,3.999682617E-1,7.781268768E0,-6.090983734E0,9.889802885E0
9.209269458E0,3.832031250E-2,7.580985260E0,-6.694378967E0,1.011372907E1
9.219221458E0,-6.915618896E-2,7.477550354E0,-6.857539673E0,1.014615160E1
9.229174458E0,-1.625619507E-1,7.279512177E0,-6.969806213E0,1.007948027E1
9.239127458E0,-4.664300537E-1,7.072342987E0,-7.034172363E0,9.985748503E0
9.249079458E0,-1.022972717E0,7.085814972E0,-7.200476532E0,1.015392088E1
9.259032458E0,-1.655257874E0,6.862479401E0,-6.867419128E0,9.848601304E0
9.268984458E0,-2.037263489E0,6.799610138E0,-6.283184052E0,9.479638304E0
9.278937458E0,-2.217788086E0,6.736142120E0,-5.851481781E0,9.194239158E0
9.288890458E0,-2.260599060E0,6.562652893E0,-6.028862915E0,9.193797320E0
9.298842458E0,-2.326013031E0,6.634353790E0,-6.011948090E0,9.250324679E0
9.308795458E0,-2.548001404E0,6.599925385E0,-6.044580231E0,9.305282177E0
9.318747458E0,-2.642305298E0,6.482569427E0,-5.743256836E0,9.054859621E0
9.328700458E0,-2.692900085E0,6.049669647E0,-6.089486847E0,8.996224973E0
9.338653458E0,-2.781216431E0,5.617967377E0,-6.652166748E0,9.140461954E0
9.348605458E0,-2.351609802E0,5.638624420E0,-5.019960938E0,7.907222131E0
9.358558458E0,-2.553090820E0,6.875202942E0,-6.137087860E0,9.562977341E0
9.368510458E0,-1.866169281E0,6.461762695E0,-8.612340546E0,1.092745966E1
9.378463458E0,-2.163002014E-1,6.410269775E0,-8.349936218E0,1.052899707E1
9.388416458E0,-2.704875183E-1,6.508016510E0,-8.275241547E0,1.053124233E1
9.398368458E0,-5.833369446E-1,6.799310760E0,-8.779842224E0,1.112009615E1
9.408321458E0,-1.052760773E0,6.535858612E0,-8.953481140E0,1.113510564E1
9.418273458E0,-1.351838837E0,6.734046478E0,-8.622519379E0,1.102373306E1
9.428226458E0,-1.496887207E0,6.636748810E0,-8.135432281E0,1.060529889E1
9.438179458E0,-1.962718506E0,6.122118988E0,-7.977810059E0,1.024588006E1
9.448131458E0,-2.036365356E0,5.879473572E0,-7.603588257E0,9.824945177E0
9.458084458E0,-2.155068512E0,5.514831848E0,-7.425907745E0,9.497462632E0
9.468036458E0,-2.018253021E0,5.493426361E0,-7.380252686E0,9.419087437E0
9.477989458E0,-1.599274292E0,5.551206207E0,-7.324119415E0,9.328252453E0
9.487942458E0,-9.518705750E-1,5.862109680E0,-7.052434387E0,9.219935915E0
9.497894458E0,-1.541793823E-2,6.350993042E0,-7.289541321E0,9.668131309E0
9.507847458E0,6.670129395E-1,6.437662811E0,-7.576943665E0,9.964862469E0
9.517799458E0,9.342073059E-1,5.935606842E0,-7.350015564E0,9.493518877E0
9.527752458E0,8.370593262E-1,5.594915314E0,-7.179669800E0,9.140645717E0
9.537705458E0,4.739144897E-1,5.711822205E0,-7.274273071E0,9.260915536E0
9.547657458E0,-1.496887207E-2,5.616320801E0,-6.735543365E0,8.769881860E0
9.557610458E0,-5.174739075E-1,5.289101257E0,-6.299949188E0,8.242070803E0
9.567562458E0,-1.099014587E0,5.057383118E0,-6.788682861E0,8.536461331E0
9.577515458E0,-1.475182343E0,5.095404053E0,-7.161258087E0,8.911953927E0
9.587468458E0,-1.857936401E0,5.132975922E0,-7.679330750E0,9.421862355E0
9.597420458E0,-2.133363647E0,5.118905182E0,-8.063881073E0,9.786756801E0
9.607373458E0,-2.211501160E0,4.949307861E0,-7.471712494E0,9.231081913E0
9.617325458E0,-2.349214783E0,4.907993774E0,-6.212231598E0,8.258270667E0
9.627278458E0,-2.902464294E0,4.625980225E0,-5.477409668E0,7.734727448E0
9.637231458E0,-3.443289642E0,4.612807617E0,-4.806953888E0,7.499402867E0
9.647183458E0,-3.284918976E0,4.636757812E0,-6.561006317E0,8.679690063E0
9.657136458E0,-2.554288330E0,5.011578369E0,-9.310189362E0,1.087749661E1
9.667088458E0,-1.549727325E0,5.839806061E0,-1.088611221E1,1.245039874E1
9.677041458E0,-6.186634827E-1,6.459966431E0,-1.167212769E1,1.335486711E1
9.686994458E0,-3.276686096E-1,6.368806000E0,-1.173350006E1,1.335455279E1
9.696946458E0,-7.460485840E-1,6.029761047E0,-1.186208267E1,1.332755087E1
9.706899458E0,-1.281485138E0,5.686973877E0,-1.110076584E1,1.253837622E1
9.716851458E0,-1.124012604E0,5.608536987E0,-9.989476776E0,1.151124397E1
9.726804458E0,-7.894583130E-1,5.639672241E0,-9.264833679E0,1.087503060E1
9.736757458E0,-9.401948547E-1,5.536686401E0,-8.805289307E0,1.044375327E1
9.746709458E0,-1.306333466E0,5.461243286E0,-8.326884155E0,1.004334034E1
9.756662458E0,-1.631008301E0,5.500312042E0,-7.832761688E0,9.709056406E0
9.766614458E0,-1.979483643E0,5.551954651E0,-7.850275269E0,9.816790602E0
9.776567458E0,-2.193837891E0,5.622458038E0,-8.036038971E0,1.005001898E1
9.786520458E0,-2.173480225E0,5.705235901E0,-8.283025360E0,1.028990972E1
9.796472458E0,-2.283501434E0,5.813760223E0,-8.648116150E0,1.066790043E1
9.806425458E0,-2.223775635E0,5.727689209E0,-8.970845032E0,1.087325445E1
9.816377458E0,-2.204166412E0,5.945336609E0,-9.108408966E0,1.109813006E1
9.826330458E0,-2.457589417E0,5.588029633E0,-9.398206329E0,1.120678826E1
9.836283458E0,-2.623145142E0,5.387895813E0,-9.187145233E0,1.096877155E1
9.846235458E0,-2.495310974E0,5.238805847E0,-8.633147278E0,1.040206208E1
9.856188458E0,-2.625689850E0,5.540727997E0,-8.466394043E0,1.045340815E1
9.866140458E0,-2.333048401E0,5.254672852E0,-8.543334045E0,1.029773073E1
9.876093458E0,-2.517764282E0,5.610482941E0,-8.449479218E0,1.045037582E1
9.886046458E0,-3.105591888E0,5.748196564E0,-8.831634521E0,1.098563758E1
9.895998458E0,-3.239712982E0,5.665718079E0,-9.071735229E0,1.117553049E1
9.905951458E0,-3.005450134E0,5.781277771E0,-8.647667084E0,1.082765206E1
9.915903458E0,-2.831661530E0,6.021528168E0,-7.996670837E0,1.040306940E1
9.925856458E0,-2.405946808E0,6.086493073E0,-7.413782959E0,9.889295007E0
9.935809458E0,-2.005978546E0,6.349645844E0,-7.078180847E0,9.718158075E0
9.945761458E0,-1.543889465E0,6.339317322E0,-7.364086304E0,9.838714646E0
9.955714458E0,-1.222807159E0,6.394552460E0,-8.040230255E0,1.034557205E1
9.965666458E0,-1.046473846E0,6.419101410E0,-8.392597504E0,1.061770518E1
9.975619458E0,-9.171427917E-1,6.473588104E0,-8.281528473E0,1.055140785E1
9.985572458E0,-7.876620483E-1,6.438560944E0,-7.875872040E0,1.020317788E1
9.995524458E0,-6.984475708E-1,6.821764069E0,-7.122638397E0,9.887177138E0
1.000547746E1,-3.237767029E-1,7.002887421E0,-6.623127136E0,9.644225041E0
1.001542946E1,-3.951782227E-2,7.253316650E0,-6.661447449E0,9.848200150E0
1.002538246E1,4.595443726E-2,7.421566772E0,-6.808890839E0,1.007187965E1
1.003533546E1,-3.673361206E-1,7.534581757E0,-7.072642365E0,1.034055744E1
1.004528746E1,-5.578898621E-1,7.603588257E0,-7.142696686E0,1.044719634E1
1.005524046E1,-9.749226379E-1,7.397167511E0,-7.015161896E0,1.024114533E1
1.006519246E1,-1.226399689E0,7.231312408E0,-6.762487335E0,9.976330503E0
1.007514546E1,-1.004111938E0,7.261399841E0,-5.844895477E0,9.375445140E0
1.008509846E1,-8.771759033E-1,7.157366180E0,-5.570066986E0,9.111694378E0
1.009505046E1,-9.547146606E-1,7.002138977E0,-5.355413361E0,8.866898139E0
1.010500346E1,-1.145118713E0,6.781797180E0,-5.231022034E0,8.641045155E0
1.011495546E1,-1.402134247E0,6.372248840E0,-5.497467957E0,8.531921804E0
1.012490846E1,-1.580862579E0,6.111940155E0,-6.179898834E0,8.834369732E0
1.013486146E1,-1.708846436E0,6.298601990E0,-7.356452179E0,9.834120796E0
1.014481346E1,-1.379082184E0,6.911577301E0,-8.303832092E0,1.089152863E1
1.015476646E1,-6.279441833E-1,7.469916229E0,-8.383466492E0,1.124617592E1
1.016471846E1,-7.334747314E-3,7.851472778E0,-8.028404846E0,1.122946851E1
1.017467204E1,-1.594184875E-1,7.759264526E0,-8.310418396E0,1.137078072E1
1.018462504E1,-4.007167053E-1,7.776179352E0,-8.259673920E0,1.135128858E1
1.019457704E1,-9.416917419E-1,7.665260010E0,-7.799830170E0,1.097635390E1
1.020453004E1,-1.764380951E0,7.475305023E0,-7.085216217E0,1.044957005E1
1.021448204E1,-2.180066528E0,7.310647430E0,-6.629563751E0,1.010689722E1
1.022443504E1,-2.235451355E0,7.204069061E0,-6.482719116E0,9.945928863E0
1.023438804E1,-2.034718781E0,7.251520386E0,-6.344556427E0,9.847742111E0
1.024434004E1,-1.728605347E0,7.407346344E0,-6.399941254E0,9.940628972E0
1.025429304E1,-1.473685455E0,7.412435760E0,-6.389463043E0,9.896524173E0
1.026424504E1,-9.282197571E-1,7.378905487E0,-6.541247406E0,9.904431116E0
1.027419804E1,-2.341131592E-1,7.633975067E0,-6.835086365E0,1.024942876E1
1.028415104E1,2.966830444E-1,7.867339783E0,-6.689289551E0,1.033100435E1
1.029410304E1,6.041436768E-1,7.920928345E0,-6.195466461E0,1.007421958E1
1.030405604E1,6.493496704E-1,7.774532776E0,-5.715714111E0,9.671318560E0
1.031400804E1,3.288661194E-1,7.486531677E0,-5.493576050E0,9.291699914E0
1.032396104E1,-9.145980835E-2,7.048692169E0,-5.417683868E0,8.890653783E0
1.033391404E1,-5.111869812E-1,6.756499786E0,-5.711223450E0,8.861697060E0
1.034386604E1,-8.800199890E-1,6.785389709E0,-5.956413574E0,9.071648767E0
1.035381904E1,-1.014440460E0,6.831344147E0,-5.641318817E0,8.917445278E0
1.036377104E1,-1.327439575E0,6.802903290E0,-5.594615936E0,8.907374275E0
1.037372404E1,-1.398541718E0,6.731801147E0,-5.320386200E0,8.693651416E0
1.038367704E1,-1.393452301E0,6.578519897E0,-4.960534515E0,8.356167545E0
1.039362904E1,-1.521585846E0,6.425388336E0,-4.962480469E0,8.259966777E0
1.040358204E1,-1.694476318E0,6.477929077E0,-5.119354248E0,8.428677419E0
1.041353404E1,-1.805395660E0,6.557713165E0,-5.678291931E0,8.860364253E0
1.042348704E1,-1.768272858E0,6.641838226E0,-6.305637360E0,9.327479104E0
1.043344004E1,-1.705104218E0,6.824009399E0,-7.029382324E0,9.944179229E0
1.044339204E1,-1.502874756E0,7.057972870E0,-7.416776733E0,1.034805251E1
1.045334504E1,-9.873468018E-1,7.205116882E0,-4.163741455E0,8.380054051E0
1.046329704E1,-9.114546204E-1,8.493637390E0,-7.990084534E0,1.169675496E1
1.047325004E1,-8.175997925E-1,7.394024048E0,-9.647587738E0,1.218261098E1
1.048320304E1,-1.191522217E0,7.036268005E0,-8.548722839E0,1.113595325E1
1.049315504E1,-1.830243988E0,6.944059753E0,-8.700357513E0,1.128122244E1
1.050310804E1,-2.418820038E0,6.675069122E0,-8.543184357E0,1.110825086E1
1.051306004E1,-2.557132416E0,6.781048737E0,-7.970475311E0,1.077265171E1
1.052301304E1,-2.324067078E0,6.584806824E0,-7.038962402E0,9.915037085E0
1.053296604E1,-2.100132751E0,6.461163940E0,-7.068600769E0,9.804198788E0
1.054291804E1,-2.139051819E0,6.863976288E0,-8.192763062E0,1.090004953E1
1.055287104E1,-2.234403534E0,6.627318420E0,-8.982520752E0,1.138418147E1
1.056282304E1,-2.161056061E0,6.347250824E0,-9.132957916E0,1.132999014E1
1.057277604E1,-1.769470367E0,6.321953430E0,-8.541986847E0,1.077328454E1
1.058272904E1,-1.614841919E0,6.618636475E0,-8.048014069E0,1.054441054E1
1.059268104E1,-1.490749969E0,6.535708923E0,-7.250921631E0,9.874902080E0
1.060263404E1,-1.159339142E0,6.114335175E0,-6.110443268E0,8.721621340E0
1.061258604E1,-1.055006104E0,6.018534393E0,-5.580245819E0,8.274958461E0
1.062253904E1,-1.517693939E0,5.922583923E0,-5.754483490E0,8.396098824E0
1.063249204E1,-2.197280731E0,5.566474457E0,-5.820795593E0,8.348373604E0
1.064244404E1,-2.653531952E0,5.344486084E0,-6.012995911E0,8.471179560E0
1.065239704E1,-2.594105530E0,5.574707336E0,-6.448590088E0,8.910166076E0
1.066234904E1,-2.101629639E0,5.927523651E0,-7.047794037E0,9.445834244E0
1.067230204E1,-1.732796631E0,6.063291321E0,-7.181466064E0,9.557172209E0
1.068225504E1,-1.751208344E0,5.984555054E0,-7.297624512E0,9.598799579E0
1.069220704E1,-1.970801697E0,5.879323883E0,-7.055727539E0,9.393284822E0
1.070216004E1,-2.197430420E0,5.848937073E0,-6.487808533E0,9.007242913E0
1.071211204E1,-2.598296814E0,5.785319366E0,-6.662944336E0,9.198689783E0
1.072206504E1,-3.020718384E0,5.621410217E0,-7.003186798E0,9.474682988E0
1.073201804E1,-3.216960297E0,5.449717255E0,-6.931336212E0,9.385716456E0
1.074197004E1,-3.048111420E0,5.449567566E0,-7.025640106E0,9.399382362E0
1.075192304E1,-2.743045807E0,5.535638580E0,-6.963818665E0,9.309262333E0
1.076187504E1,-2.670746155E0,5.460644531E0,-6.883136444E0,9.183087228E0
1.077182804E1,-3.056493988E0,5.303471375E0,-6.311924286E0,8.792573702E0
1.078178104E1,-3.527414703E0,5.155429230E0,-5.582940216E0,8.377966728E0
1.079173304E1,-4.097279663E0,4.953050079E0,-5.056634674E0,8.178628244E0
1.080168604E1,-4.770280151E0,4.709057465E0,-4.214485931E0,7.917871342E0
1.081163804E1,-5.171894989E0,4.669839020E0,-4.774621124E0,8.447064646E0
1.082159104E1,-4.621489563E0,4.787045288E0,-7.538922729E0,1.005531324E1
1.083154404E1,-3.184328156E0,5.420677643E0,-1.064152084E1,1.235984052E1
1.084149604E1,-2.041754150E0,6.384673004E0,-1.148726212E1,1.330000001E1
1.085144904E1,-1.060245209E0,6.701264648E0,-1.068942123E1,1.266075804E1
1.086140104E1,-3.767665100E-1,6.690786438E0,-9.640252991E0,1.174065815E1
1.087135404E1,-8.737330627E-1,6.765481110E0,-9.223519592E0,1.147207295E1
1.088130704E1,-2.075134735E0,6.565047913E0,-9.281898193E0,1.155680199E1
1.089125904E1,-2.901117096E0,5.915698242E0,-8.275840302E0,1.057835048E1
1.090121204E1,-3.177741852E0,5.592370605E0,-7.601043549E0,9.957334748E0
1.091116404E1,-3.085084534E0,5.598657532E0,-7.126081238E0,9.573074038E0
1.092111704E1,-2.969375153E0,5.838458862E0,-6.879843292E0,9.499317576E0
1.093107004E1,-3.004701691E0,5.844596100E0,-6.812183990E0,9.465378309E0
1.094102204E1,-3.005599823E0,5.769602051E0,-6.608008575E0,9.272956133E0
1.095097504E1,-2.997666321E0,5.648653564E0,-6.496340790E0,9.115686157E0
1.096092704E1,-3.000061340E0,5.581143951E0,-6.523284760E0,9.094106878E0
1.097088004E1,-3.007246399E0,5.608387299E0,-6.939419403E0,9.415576490E0
1.098083304E1,-2.874921570E0,5.710624695E0,-7.238796844E0,9.657980544E0
1.099078504E1,-2.481240234E0,5.777086487E0,-7.242239685E0,9.590689080E0
1.100073804E1,-2.137554932E0,5.701643372E0,-7.083869019E0,9.341256794E0
1.101069004E1,-2.410587158E0,5.444328461E0,-7.022047577E0,9.206562605E0
1.102064304E1,-3.160228271E0,5.044360199E0,-6.822662201E0,9.054354315E0
1.103059604E1,-3.386258240E0,4.886438599E0,-6.419251099E0,8.749332072E0
1.104054804E1,-3.493734741E0,5.338648224E0,-6.005212097E0,8.761844534E0
1.105050104E1,-3.057092743E0,5.647755432E0,-6.872957611E0,9.406407592E0
1.106045304E1,-2.592908020E0,6.067332916E0,-7.562573547E0,1.003634492E1
1.107040604E1,-2.618804169E0,5.761069794E0,-8.528215485E0,1.061972315E1
1.108035904E1,-2.561323700E0,5.617967377E0,-9.352700958E0,1.120691535E1
1.109031104E1,-2.278711395E0,5.762416992E0,-9.693542175E0,1.150490048E1
1.110026404E1,-2.440225525E0,5.879473572E0,-9.214837646E0,1.119982781E1
1.111021604E1,-2.990630951E0,6.202651520E0,-8.284821625E0,1.077288396E1
1.112016904E1,-3.631448364E0,6.104605408E0,-7.863148499E0,1.059635450E1
1.113012204E1,-4.314028931E0,5.749094696E0,-7.711513824E0,1.054183954E1
1.114007404E1,-4.895120544E0,5.608836365E0,-7.932604065E0,1.087876178E1
1.115002704E1,-5.398523712E0,5.807473297E0,-8.297395477E0,1.147682779E1
1.115997904E1,-5.325924683E0,5.896837463E0,-8.533155212E0,1.165988438E1
1.116993204E1,-4.515060883E0,6.160139923E0,-8.728199615E0,1.159804152E1
1.117988517E1,-2.886746979E0,6.289321289E0,-8.340505829E0,1.083756928E1
1.118983717E1,-1.560953979E0,7.486531677E0,-7.763605499E0,1.089762838E1
1.119979017E1,-1.172661438E0,8.413853302E0,-7.397167511E0,1.126437523E1
1.120974217E1,-1.345102844E0,8.339607697E0,-7.227570190E0,1.111737959E1
1.121969517E1,-1.828298035E0,8.047265625E0,-7.342381439E0,1.104589168E1
1.122964817E1,-2.607876892E0,7.814649353E0,-7.020999756E0,1.082424150E1
1.123960017E1,-3.498524780E0,7.225773926E0,-6.430328064E0,1.028594203E1
1.124955317E1,-3.713627472E0,7.079078979E0,-6.149661713E0,1.008576856E1
1.125950517E1,-3.339405670E0,6.888824615E0,-6.100264435E0,9.788807945E0
1.126945817E1,-3.208877106E0,6.738686829E0,-6.357729034E0,9.804463827E0
1.127941117E1,-3.264561310E0,6.757248230E0,-6.676266632E0,1.004441638E1
1.128936317E1,-3.350632324E0,6.803651733E0,-6.794071655E0,1.018213256E1
1.129931617E1,-2.949017487E0,6.788084106E0,-6.522536316E0,9.865002279E0
1.130926817E1,-2.527044983E0,6.707701263E0,-7.049141235E0,1.005333799E1
1.131922117E1,-1.944755859E0,6.876550140E0,-7.303911438E0,1.021842157E1
1.132917417E1,-1.109642487E0,7.067702637E0,-7.306007080E0,1.022553013E1
1.133912617E1,-2.829116821E-1,7.116800537E0,-7.594307556E0,1.041164714E1
1.134907917E1,5.968089294E-1,7.302713928E0,-8.664731598E0,1.134739553E1
1.135903117E1,4.555027771E-1,7.448660431E0,-9.307644653E0,1.192988994E1
1.136898417E1,4.400848389E-2,7.712561646E0,-8.690328369E0,1.161926637E1
1.137893717E1,1.083746338E-1,8.139024811E0,-8.161627808E0,1.152682256E1
1.138888917E1,-1.155596924E-1,8.375383301E0,-8.075856171E0,1.163528480E1
1.139884217E1,-8.479866028E-1,8.328231354E0,-7.969876556E0,1.155843636E1
1.140879417E1,-1.675765228E0,8.285270691E0,-7.014413452E0,1.098434775E1
1.141874717E1,-2.368075562E0,7.971972198E0,-6.756350098E0,1.071486767E1
1.142869917E1,-3.007845154E0,7.422614594E0,-6.809040527E0,1.051215357E1
1.143865217E1,-3.182531891E0,7.008874969E0,-5.867199097E0,9.678680841E0
1.144860517E1,-3.021915894E0,6.625821533E0,-5.565426636E0,9.165558373E0
1.145855717E1,-2.530936890E0,6.445746002E0,-5.795647888E0,9.030106174E0
1.146851017E1,-1.909579010E0,6.522985382E0,-6.099815369E0,9.132555930E0
1.147846217E1,-1.272204437E0,6.772815857E0,-5.923781433E0,9.087393753E0
1.148841517E1,-6.644682312E-1,6.960675201E0,-5.321434021E0,8.786932191E0
1.149836817E1,-8.232879639E-2,7.084018707E0,-5.195246429E0,8.785253812E0
1.150832017E1,4.073030090E-1,7.028783569E0,-5.161117401E0,8.729652171E0
1.151827317E1,4.462220764E-1,6.959777069E0,-4.859794006E0,8.500306393E0
1.152822517E1,2.439926147E-2,6.860982513E0,-4.733905792E0,8.335678762E0
1.153817817E1,-5.108876038E-1,6.694079590E0,-4.838238831E0,8.275280218E0
1.154813117E1,-8.885522461E-1,6.662794647E0,-4.649481354E0,8.173128805E0
1.155808317E1,-1.076112213E0,6.646179199E0,-4.288432159E0,7.982503732E0
1.156803617E1,-1.216071167E0,6.733896790E0,-4.788242798E0,8.351734200E0
1.157798817E1,-1.488804016E0,6.979236603E0,-5.788313141E0,9.188626120E0
1.158794117E1,-1.602268066E0,7.256310425E0,-5.823040924E0,9.440821444E0
1.159789417E1,-1.585353241E0,7.056176605E0,-5.729635162E0,9.226683710E0
1.160784617E1,-2.163301392E0,6.382427673E0,-5.484145660E0,8.688561995E0
1.161779917E1,-1.746567993E0,7.079977112E0,-7.122488708E0,1.019344991E1
1.162775117E1,-9.801617432E-1,6.942862244E0,-6.850803680E0,9.802936511E0
1.163770417E1,-1.355131989E0,6.698869629E0,-6.938521271E0,9.739317966E0
1.164765717E1,-1.227297821E0,6.187682648E0,-4.538711700E0,7.771330670E0
1.165760917E1,-1.461560669E0,7.424560547E0,-6.368057556E0,9.890015973E0
1.166756217E1,-1.640887756E0,7.299420776E0,-9.511071625E0,1.210101400E1
1.167751417E1,-1.954785004E0,6.624773712E0,-9.203610992E0,1.150718325E1
1.168746717E1,-2.671793976E0,6.341712341E0,-8.668623505E0,1.106800939E1
1.169742017E1,-3.440894623E0,6.152655487E0,-7.942184143E0,1.061947335E1
1.170737217E1,-3.769012299E0,6.089786224E0,-7.921377411E0,1.067891240E1
1.171732517E1,-3.968098297E0,6.475983124E0,-8.699160004E0,1.154814038E1
1.172727717E1,-3.709585876E0,7.030729523E0,-8.650361481E0,1.174823130E1
1.173723017E1,-3.493285675E0,7.101981354E0,-8.744216309E0,1.179417241E1
1.174718317E1,-3.247347107E0,6.750063171E0,-8.747509460E0,1.151640299E1
1.175713517E1,-2.663710785E0,6.298751678E0,-9.008716278E0,1.131046404E1
1.176708817E1,-2.005679169E0,6.025569763E0,-9.080566864E0,1.108092661E1
1.177704017E1,-2.199076996E0,6.464008026E0,-8.590336304E0,1.097329564E1
1.178699317E1,-2.462529144E0,5.657185822E0,-7.555837555E0,9.754920931E0
1.179694617E1,-1.569486237E0,5.057682495E0,-6.330785065E0,8.253622163E0
1.180689817E1,-5.710624695E-1,5.478158112E0,-5.788163452E0,7.989941476E0
1.181685117E1,-5.074447632E-2,5.755980377E0,-5.499413910E0,7.960994816E0
1.182680317E1,-6.885681152E-2,5.811814270E0,-5.702391815E0,8.142431994E0
1.183675617E1,-3.751199341E-1,5.969286804E0,-6.045029297E0,8.503850840E0
1.184670917E1,-7.246430969E-1,6.066135406E0,-6.493347015E0,8.915529252E0
1.185666117E1,-1.035097504E0,6.090534668E0,-6.929839325E0,9.283787614E0
1.186661417E1,-1.270108795E0,6.146967316E0,-7.214547272E0,9.562848732E0
1.187656617E1,-1.683698730E0,6.152056732E0,-7.533384247E0,9.870892648E0
1.188651917E1,-2.106569366E0,5.948180695E0,-7.501051483E0,9.802257976E0
1.189647117E1,-2.395767975E0,5.772146759E0,-7.236102448E0,9.561305404E0
1.190642417E1,-2.478845215E0,5.740562439E0,-6.821764069E0,9.253928664E0
1.191637717E1,-2.517315216E0,5.631439362E0,-6.883435822E0,9.242925613E0
1.192632917E1,-2.687511292E0,5.618117065E0,-6.968009949E0,9.345540057E0
1.193628217E1,-2.898273010E0,5.773943024E0,-6.561754761E0,9.208421690E0
1.194623417E1,-3.488046570E0,5.860762482E0,-6.026018829E0,9.100983940E0
1.195618717E1,-4.756957855E0,5.471721497E0,-5.806575165E0,9.288955771E0
1.196614017E1,-5.018763428E0,4.690945129E0,-7.063810730E0,9.853444808E0
1.197609217E1,-3.435954895E0,5.094505920E0,-1.239018448E1,1.383027288E1
1.198604517E1,-1.823957062E0,6.839726715E0,-1.462144455E1,1.624485524E1
1.199599717E1,-6.628216553E-1,7.914042664E0,-1.256337433E1,1.486303396E1
1.200595017E1,-2.377056885E-1,7.921826477E0,-1.192525131E1,1.431864021E1
1.201590317E1,-1.098565521E0,7.287445679E0,-1.069825287E1,1.299100940E1
1.202585517E1,-1.938468933E0,6.573879547E0,-9.710307312E0,1.188543740E1
1.203580817E1,-2.130968628E0,6.168971558E0,-8.442294159E0,1.067096847E1
1.204576017E1,-1.921105042E0,6.058650970E0,-7.815098419E0,1.007341350E1
1.205571317E1,-1.859133911E0,6.186485138E0,-7.900570679E0,1.020529247E1
1.206566617E1,-2.194137268E0,5.947881317E0,-7.827073517E0,1.007246794E1
1.207561817E1,-2.868784332E0,5.597010956E0,-7.019802246E0,9.425183221E0
1.208557117E1,-3.626508636E0,5.572462006E0,-6.252647552E0,9.126855927E0
1.209552317E1,-3.702849884E0,5.267396393E0,-5.982160034E0,8.788788352E0
1.210547617E1,-3.434308319E0,5.364244995E0,-6.106551361E0,8.823806861E0
1.211542917E1,-3.191513214E0,5.506299591E0,-6.550528107E0,9.133154453E0
1.212538117E1,-3.047213287E0,5.608087921E0,-6.915319519E0,9.410515554E0
1.213533417E1,-2.880010986E0,5.441484375E0,-7.439080353E0,9.656300119E0
1.214528617E1,-2.875370636E0,4.929399261E0,-7.372169495E0,9.322854522E0
1.215523917E1,-3.480262756E0,4.677323456E0,-7.490124207E0,9.491656557E0
1.216519217E1,-4.226311340E0,4.284989319E0,-6.746919708E0,9.041225943E0
1.217514479E1,-4.156107330E0,4.367467804E0,-6.475983124E0,8.847957989E0
1.218509779E1,-3.619173889E0,4.650080109E0,-7.053931274E0,9.191279078E0
1.219504979E1,-3.139271851E0,5.347928925E0,-7.058421936E0,9.395567666E0
1.220500279E1,-2.938988342E0,5.390590210E0,-7.433092804E0,9.640901613E0
1.221495579E1,-2.219584351E0,5.229375458E0,-8.367898865E0,1.011408195E1
1.222490779E1,-1.590292969E0,5.842350769E0,-9.115144958E0,1.094294119E1
1.223486079E1,-1.076261902E0,6.141728210E0,-9.674082642E0,1.150943266E1
1.224481279E1,-1.033301239E0,6.285728760E0,-9.886640625E0,1.176111221E1
1.225476579E1,-6.189628601E-1,6.054908752E0,-9.126072235E0,1.096951364E1
1.226471879E1,1.639091492E-1,5.533393250E0,-8.153394928E0,9.855108113E0
1.227467079E1,-8.921447754E-2,7.108717346E0,-8.433312836E0,1.103007647E1
1.228462379E1,-2.128274231E0,7.846383362E0,-9.138945465E0,1.223174588E1
1.229457579E1,-4.340074768E0,7.315138092E0,-8.525670776E0,1.204302937E1
1.230452879E1,-5.765859833E0,6.633156281E0,-7.415130157E0,1.149904592E1
1.231448079E1,-6.192472687E0,6.099515991E0,-6.291117554E0,1.072981702E1
1.232443379E1,-5.962700500E0,5.530399475E0,-5.441484375E0,9.785135043E0
1.233438679E1,-5.353916473E0,5.316494293E0,-4.860392761E0,8.975129579E0
1.234433879E1,-4.635560303E0,5.288652191E0,-4.485721893E0,8.341460437E0
1.235429179E1,-3.315305786E0,5.460943909E0,-4.965174866E0,8.091113785E0
1.236424379E1,-2.220482483E0,6.086343384E0,-5.405559082E0,8.437664797E0
1.237419679E1,-1.701960754E0,6.757846985E0,-5.701793060E0,9.004199597E0
1.238414979E1,-1.898052979E0,7.288194122E0,-6.080505524E0,9.679510633E0
1.239410179E1,-2.249821472E0,7.655530243E0,-5.741161194E0,9.830044344E0
1.240405479E1,-2.770438843E0,7.073989563E0,-5.094356232E0,9.147082876E0
1.241400679E1,-3.077600098E0,7.076833649E0,-5.070406036E0,9.233754070E0
1.242395979E1,-2.784659271E0,7.230114899E0,-5.590125275E0,9.553972435E0
1.243391279E1,-2.436333618E0,7.545359344E0,-7.023843842E0,1.059257058E1
1.244386479E1,-2.040706329E0,8.192912750E0,-8.660540314E0,1.209517508E1
1.245381779E1,-1.147513733E0,8.530909882E0,-9.368717651E0,1.272266016E1
1.246376979E1,-8.059240723E-1,8.351732483E0,-8.751401367E0,1.212385974E1
1.247372279E1,-8.999285889E-1,8.132139130E0,-7.942034454E0,1.140252032E1
1.248367579E1,-7.490423584E-1,8.146209869E0,-7.431446228E0,1.105206735E1
1.249362779E1,-4.441264343E-1,8.329728241E0,-6.877747650E0,1.081133820E1
1.250358079E1,-6.045927429E-1,8.049810333E0,-6.787485352E0,1.054679744E1
1.251353279E1,-1.067879333E0,8.203840027E0,-7.247778168E0,1.099880202E1
1.252348579E1,-1.277892609E0,8.318052521E0,-7.019951935E0,1.095913922E1
1.253343779E1,-1.915117493E0,7.879913635E0,-7.031328278E0,1.073313986E1
1.254339079E1,-2.798280945E0,7.262297974E0,-6.945556641E0,1.043130410E1
1.255334379E1,-3.434607697E0,7.059769135E0,-6.639742584E0,1.028217155E1
1.256329579E1,-3.461701355E0,7.288493500E0,-6.680008850E0,1.047511489E1
1.257324879E1,-2.668500824E0,7.992329865E0,-6.789580994E0,1.082112025E1
1.258320079E1,-1.443148956E0,8.451574860E0,-6.484515381E0,1.074991796E1
1.259315379E1,-3.685336304E-1,8.620423737E0,-6.197262726E0,1.062325693E1
1.260310679E1,1.451980591E-1,8.649613037E0,-6.062243500E0,1.056350720E1
1.261305879E1,1.492396545E-1,8.129145355E0,-5.755531311E0,9.961496743E0
1.262301179E1,-3.287164307E-1,7.394622803E0,-5.502707062E0,9.223247036E0
1.263296379E1,-9.229806519E-1,6.941365356E0,-5.162314911E0,8.699651805E0
1.264291679E1,-1.375489655E0,6.645580444E0,-4.890031128E0,8.364694595E0
1.265286979E1,-1.645079041E0,6.589896240E0,-5.000501404E0,8.434336476E0
1.266282179E1,-1.788780212E0,6.711593170E0,-5.204826508E0,8.679598868E0
1.267277479E1,-2.036814423E0,6.801256714E0,-4.963079224E0,8.662439683E0
1.268272679E1,-2.518063660E0,7.046446838E0,-5.131628723E0,9.073404598E0
1.269267979E1,-2.620151367E0,7.315587158E0,-5.563929749E0,9.557213135E0
1.270263279E1,-2.669548645E0,7.320526886E0,-5.522615662E0,9.550700896E0
1.271258479E1,-2.893033905E0,6.986421661E0,-5.496420135E0,9.348281506E0
1.272253779E1,-3.083887024E0,6.529871063E0,-5.875581665E0,9.309781694E0
1.273248979E1,-3.506158905E0,6.196663971E0,-6.649921417E0,9.742343121E0
1.274244279E1,-3.691772919E0,6.039640503E0,-7.649692383E0,1.042229525E1
1.275239479E1,-2.904859314E0,5.148543549E0,-5.747897186E0,8.245242893E0
1.276234779E1,-1.735191650E0,7.275620270E0,-7.549400940E0,1.062727599E1
1.277230079E1,-1.975891113E-1,7.282805328E0,-1.081665665E1,1.304140928E1
1.278225279E1,2.767744446E-1,6.642436981E0,-1.023885818E1,1.220789868E1
1.279220579E1,4.550537109E-2,6.519392853E0,-8.821455688E0,1.096916744E1
1.280215779E1,-8.349636841E-1,5.729186096E0,-7.708520050E0,9.640644120E0
1.281211079E1,-1.985770569E0,5.338797913E0,-7.469167786E0,9.393322911E0
1.282206379E1,-3.256777496E0,5.108876038E0,-7.236102448E0,9.437605240E0
1.283201579E1,-4.221521301E0,5.199737091E0,-6.920708313E0,9.630924746E0
1.284196879E1,-4.601730652E0,5.711971893E0,-7.968679047E0,1.083062296E1
1.285192079E1,-4.323010254E0,5.935906219E0,-8.540639648E0,1.126347752E1
1.286187379E1,-3.653452606E0,5.942791901E0,-8.515941010E0,1.100843962E1
1.287182679E1,-2.480491791E0,5.695805511E0,-8.740474091E0,1.072338227E1
1.288177879E1,-1.081501007E0,5.663921814E0,-8.733588409E0,1.046542982E1
1.289173179E1,-1.058299255E-1,6.311774597E0,-8.050858154E0,1.023064101E1
1.290168379E1,5.282514954E-1,6.142476654E0,-7.402256927E0,9.633404212E0
1.291163679E1,7.331753540E-1,6.085744629E0,-7.055577850E0,9.346390351E0
1.292158979E1,4.131408691E-1,6.713239746E0,-7.022796021E0,9.724090560E0
1.293154179E1,-5.176235962E-1,6.760840759E0,-6.924600220E0,9.691593789E0
1.294149479E1,-1.584604797E0,6.003266144E0,-7.140451355E0,9.462358179E0
1.295144679E1,-2.324665833E0,5.625152435E0,-8.188571777E0,1.020289757E1
1.296139979E1,-1.816472626E0,5.579048309E0,-7.930358734E0,9.864884312E0
1.297135179E1,-1.409019928E0,5.827531586E0,-7.207212524E0,9.374933275E0
1.298130479E1,-1.677561493E0,5.471721497E0,-5.383704529E0,7.857367444E0
1.299125779E1,-2.218985596E0,5.188510437E0,-5.602699127E0,7.952029624E0
1.300120979E1,-2.838547211E0,5.145400085E0,-7.411837006E0,9.458743051E0
1.301116279E1,-2.586621094E0,5.358107758E0,-1.025607239E1,1.185693671E1
1.302111479E1,-1.160087585E0,6.656956787E0,-1.206386307E1,1.382742452E1
1.303106779E1,1.212478638E-2,7.775879974E0,-1.149699188E1,1.387967142E1
1.304102079E1,4.766088867E-1,7.807913361E0,-1.151884644E1,1.392388201E1
1.305097279E1,4.661306763E-1,7.004533997E0,-1.051443512E1,1.264255197E1
1.306092579E1,4.475692749E-2,6.235732727E0,-9.208999786E0,1.112169245E1
1.307087779E1,-4.102967834E-1,5.622907104E0,-9.195677490E0,1.078637623E1
1.308083079E1,-7.069798279E-1,5.509592743E0,-8.338559875E0,1.001933199E1
1.309078379E1,-5.369334412E-1,5.471571808E0,-7.190447388E0,9.051460059E0
1.310073579E1,-5.551954651E-1,5.157674561E0,-6.840774536E0,8.585222486E0
1.311068879E1,-7.197033691E-1,4.052373047E0,-7.041357422E0,8.156004818E0
1.312064079E1,-1.872456207E0,3.674259338E0,-6.655759277E0,7.829776848E0
1.313059379E1,-3.165167999E0,4.203408966E0,-6.494694214E0,8.358707336E0
1.314054579E1,-3.898193665E0,5.552553406E0,-6.988367615E0,9.739817508E0
1.315049879E1,-3.638034668E0,4.905748444E0,-7.578440552E0,9.733161112E0
1.316045179E1,-2.844534760E0,5.272934875E0,-8.352331238E0,1.027894242E1
1.317040379E1,-2.359992371E0,5.050347748E0,-8.750652924E0,1.037542784E1
1.318035571E1,-2.101929016E0,4.363276520E0,-8.974138184E0,1.019761951E1
1.319030771E1,-2.439028015E0,4.992567902E0,-9.646090851E0,1.113201063E1
1.320026071E1,-2.468367004E0,4.815486145E0,-1.021595581E1,1.156060101E1
1.321021371E1,-1.953138428E0,4.857099609E0,-9.954299927E0,1.124696641E1
1.322016571E1,-1.620829468E0,5.634283447E0,-9.800270233E0,1.142004968E1
1.323011871E1,-1.506167908E0,5.519621887E0,-1.049811905E1,1.195597219E1
1.324007071E1,-2.036215668E0,5.294639740E0,-1.014605118E1,1.162418766E1
1.325002371E1,-2.967578888E0,5.206173706E0,-9.387129364E0,1.113682930E1
1.325997671E1,-3.217559052E0,5.270240479E0,-8.455317078E0,1.046998127E1
1.326992871E1,-3.017425232E0,5.884712677E0,-7.357500000E0,9.892800643E0
1.327988171E1,-2.698139191E0,6.195915527E0,-7.158264313E0,9.844291355E0
1.328983371E1,-2.296075287E0,6.320157166E0,-7.018754425E0,9.720044341E0
1.329978671E1,-1.787433014E0,6.295009460E0,-7.099137268E0,9.655040696E0
1.330973871E1,-7.235952759E-1,6.768624573E0,-6.896009674E0,9.689830657E0
1.331969171E1,-1.029858398E0,8.047415314E0,-6.735842743E0,1.054481290E1
1.332964471E1,-2.125729523E0,8.151448975E0,-7.167095947E0,1.106038474E1
1.333959671E1,-2.768941956E0,8.315208435E0,-6.799011383E0,1.109217231E1
1.334954971E1,-2.906655579E0,7.879614258E0,-6.300547943E0,1.049923197E1
1.335950171E1,-2.541864166E0,7.476652222E0,-5.090763702E0,9.395598808E0
1.336945471E1,-2.104024658E0,7.310647430E0,-5.023703156E0,9.116472948E0
1.337940771E1,-2.019450531E0,6.969806213E0,-6.219117279E0,9.556871812E0
1.338935971E1,-1.918710022E0,6.854994965E0,-6.627767487E0,9.726238017E0
1.339931271E1,-1.287023621E0,7.034771118E0,-7.206763458E0,1.015292441E1
1.340926471E1,-1.187031555E-1,7.561226349E0,-8.095315704E0,1.107792267E1
1.341921771E1,4.849914551E-1,8.370443573E0,-8.723259888E0,1.209937211E1
1.342917071E1,2.475851440E-1,8.432564392E0,-8.336164856E0,1.186006261E1
1.343912271E1,2.086660767E-1,8.198301544E0,-7.745792542E0,1.128064678E1
1.344907571E1,-3.233276367E-2,8.081095276E0,-7.957602081E0,1.134145393E1
1.345902771E1,-4.510121155E-1,7.761958923E0,-8.143515472E0,1.125914129E1
1.346898071E1,-2.267784119E-1,7.728877716E0,-7.586823120E0,1.083267577E1
1.347893271E1,-2.574645996E-1,7.380252686E0,-7.323820038E0,1.040061333E1
1.348888571E1,-1.025068359E0,6.825655975E0,-8.207582245E0,1.072402681E1
1.349883871E1,-1.975891113E0,6.334377594E0,-8.483907623E0,1.077056980E1
1.350879071E1,-2.263592834E0,6.227499847E0,-7.508386230E0,1.001406364E1
1.351874371E1,-1.590442657E0,6.436914368E0,-7.286098480E0,9.851426571E0
1.352869571E1,-1.067579956E0,6.726112976E0,-8.358318787E0,1.078154978E1
1.353864871E1,-7.285350037E-1,6.421795807E0,-8.011190643E0,1.029317250E1
1.354860171E1,-4.085005188E-1,6.238427124E0,-7.148085480E0,9.496313584E0
1.355855371E1,8.217910767E-2,6.344556427E0,-6.967261505E0,9.423528137E0
1.356850671E1,6.188131714E-1,6.136489105E0,-6.311325531E0,8.824525950E0
1.357845871E1,7.524851990E-1,5.970334625E0,-6.130351868E0,8.590247001E0
1.358841171E1,4.942721558E-1,6.025270386E0,-5.741909637E0,8.337728376E0
1.359836371E1,-1.945953369E-2,6.425088959E0,-5.313650208E0,8.337687049E0
1.360831671E1,-8.198451233E-1,6.213578796E0,-5.119204559E0,8.092401547E0
1.361826971E1,-1.154998169E0,6.116879883E0,-4.686304779E0,7.791770836E0
1.362822171E1,-1.004860382E0,5.843548279E0,-4.603676605E0,7.506706279E0
1.363817471E1,-4.716691589E-1,6.039790192E0,-5.156027985E0,7.955260017E0
1.364812671E1,1.062789917E-1,6.226452026E0,-4.323758698E0,7.581219515E0
1.365807971E1,2.195933533E-1,6.687044220E0,-3.049159241E0,7.352697037E0
1.366803271E1,1.381626892E-1,7.091203766E0,-3.113675079E0,7.745917136E0
1.367798471E1,-5.734574890E-1,7.567662964E0,-4.300706635E0,8.723213501E0
1.368793771E1,-1.186732178E0,7.225773926E0,-3.697610779E0,8.203198618E0
1.369788971E1,-3.144510956E0,7.063211975E0,-4.702471161E0,9.049317520E0
1.370784271E1,-5.222040710E0,6.647975464E0,-7.088659058E0,1.103242377E1
1.371779571E1,-6.268065491E0,6.303242340E0,-8.293802948E0,1.215757691E1
1.372774771E1,-5.724695435E0,6.108347626E0,-1.011027557E1,1.312637500E1
1.373770071E1,-3.924987946E0,6.179449768E0,-9.518855438E0,1.200831956E1
1.374765271E1,-2.151775360E0,6.112688599E0,-9.468709717E0,1.147395149E1
1.375760571E1,-1.178050232E0,6.475983124E0,-1.126227997E1,1.304473495E1
1.376755771E1,-1.468895416E0,6.742279358E0,-1.190160049E1,1.375732819E1
1.377751071E1,-2.222278748E0,6.590944061E0,-1.042462189E1,1.253203128E1
1.378746371E1,-3.027604065E0,5.846841431E0,-9.768236847E0,1.178008456E1
1.379741571E1,-3.044818268E0,6.392456818E0,-9.093739471E0,1.152521236E1
1.380736871E1,-3.024310913E0,6.585854645E0,-8.271499329E0,1.099716505E1
1.381732071E1,-3.151696014E0,7.018455048E0,-8.067623291E0,1.114802425E1
1.382727371E1,-3.549868011E0,6.965764618E0,-8.298592987E0,1.140131945E1
1.383722671E1,-2.534679108E0,7.122638397E0,-8.898096313E0,1.167615921E1
1.384717871E1,-2.302661591E0,6.806346130E0,-7.925868073E0,1.069803640E1
1.385713171E1,-2.509681091E0,6.082900543E0,-7.471413116E0,9.956012864E0
1.386708371E1,-2.008223877E0,5.408253479E0,-7.800129547E0,9.701762200E0
1.387703671E1,-1.510359192E0,4.721481628E0,-7.060517578E0,8.626962509E0
1.388698871E1,-1.126557312E0,4.214036865E0,-7.564070435E0,8.731689391E0
1.389694171E1,-3.619473267E-1,4.614903259E0,-8.480165405E0,9.661342726E0
1.390689471E1,6.738986206E-1,5.034929810E0,-8.152347107E0,9.605489102E0
1.391684671E1,1.465452576E0,5.542823639E0,-8.158484344E0,9.971525056E0
1.392679971E1,1.354832611E0,5.167703705E0,-9.362131348E0,1.077915750E1
1.393675171E1,1.003513184E0,5.053341522E0,-9.736353149E0,1.101543789E1
1.394670471E1,8.637039185E-1,4.837041321E0,-1.042641815E1,1.152619402E1
1.395665771E1,1.624571686E0,4.884193268E0,-1.112142288E1,1.225482044E1
1.396660971E1,2.041754150E0,3.691473541E0,-1.108804230E1,1.186340672E1
1.397656271E1,1.643582153E0,3.194057922E0,-1.108235413E1,1.164997602E1
1.398651471E1,9.148974609E-1,2.996319122E0,-1.141571091E1,1.183779630E1
1.399646771E1,8.352630615E-1,3.071612549E0,-1.268881348E1,1.308198974E1
1.400642071E1,-4.342469788E-1,2.378254395E0,-1.307710602E1,1.329869791E1
1.401637271E1,-1.453178101E0,1.543590088E0,-1.222867035E1,1.241107471E1
1.402632571E1,-3.231330414E0,1.667682037E0,-1.118623810E1,1.176242247E1
1.403627771E1,-5.000202026E0,1.319805450E0,-9.583520966E0,1.088980169E1
1.404623071E1,-4.320016479E0,1.350042572E0,-9.272018738E0,1.031772692E1
1.405618271E1,-4.747826843E0,2.095193024E0,-8.202343140E0,9.706190114E0
1.406613571E1,-5.244943085E0,1.896256714E0,-7.920329590E0,9.686941638E0
1.407608871E1,-5.104834442E0,2.694097595E0,-7.908055115E0,9.790548107E0
1.408604071E1,-5.434748383E0,2.576591949E0,-8.626261597E0,1.051606890E1
1.409599371E1,-6.018833771E0,2.293979645E0,-8.964109039E0,1.103829486E1
1.410594571E1,-5.716312866E0,2.659070435E0,-8.913364563E0,1.091764426E1
1.411589871E1,-5.704038391E0,3.746858368E0,-8.307274933E0,1.075108452E1
1.412585071E1,-5.907615051E0,4.877756653E0,-8.029153290E0,1.109773527E1
1.413580371E1,-4.648134155E0,5.337001648E0,-8.183033295E0,1.081900049E1
1.414575671E1,-3.385809174E0,5.159021759E0,-8.757239227E0,1.071300369E1
1.415570871E1,-2.707719269E0,4.789589996E0,-9.564510498E0,1.103411877E1
1.416566171E1,-1.289718018E0,3.298390961E0,-1.045291306E1,1.103658221E1
1.417561342E1,-4.523593140E-1,1.747765503E0,-1.126901596E1,1.141271370E1
1.418556642E1,-9.147477722E-1,2.774630127E0,-1.164159119E1,1.200258227E1
1.419551942E1,-1.263073425E0,3.783681793E0,-1.152618118E1,1.219690350E1
1.420547142E1,-1.458267517E0,5.898334351E0,-1.062295944E1,1.223781678E1
1.421542442E1,-8.657995605E-1,3.604504395E0,-1.039887543E1,1.103986734E1
1.422537642E1,2.483335876E-1,3.158282318E0,-9.433083801E0,9.950853570E0
1.423532942E1,1.302591248E0,4.209546204E0,-8.173004150E0,9.285204362E0
1.424528142E1,5.872288513E-1,5.582790527E0,-8.493188324E0,1.018069918E1
1.425523442E1,3.839515686E-1,6.153254242E0,-8.205785980E0,1.026376540E1
1.426518742E1,2.174977112E-1,5.642216949E0,-9.297316132E0,1.087759186E1
1.427513942E1,-7.002438354E-1,6.234535217E0,-8.259823608E0,1.037229275E1
1.428509242E1,-1.264720001E0,7.411837006E0,-7.141798553E0,1.037015579E1
1.429504442E1,-1.385219421E0,8.397387543E0,-6.402635651E0,1.065029078E1
1.430499742E1,-8.250842285E-1,8.161328430E0,-6.793323212E0,1.065069416E1
1.431495042E1,-9.650431824E-1,8.642877045E0,-6.617289276E0,1.092790690E1
1.432490242E1,-7.918533325E-1,8.430169373E0,-4.520000610E0,9.598186957E0
1.433485542E1,-1.537303162E-1,8.009544067E0,-5.480702820E0,9.706417082E0
1.434480742E1,4.736151123E-1,6.703210602E0,-5.448968811E0,8.651508814E0
1.435476042E1,3.769161987E-1,5.965843964E0,-5.752238159E0,8.295878727E0
1.436471242E1,-8.337661743E-2,5.870492249E0,-6.094426575E0,8.462367646E0
1.437466542E1,-7.268884277E-1,5.810317383E0,-6.037395172E0,8.410606122E0
1.438461842E1,-1.554816742E0,5.333409119E0,-6.121520233E0,8.266542076E0
1.439457042E1,-2.206561432E0,5.009183350E0,-5.457650757E0,7.729604321E0
1.440452342E1,-2.643053741E0,5.078938293E0,-5.332810364E0,7.824334709E0
1.441447542E1,-2.997965698E0,4.853956146E0,-5.281317444E0,7.774381168E0
1.442442842E1,-3.047662354E0,4.735552368E0,-5.000950470E0,7.531481106E0
1.443438142E1,-2.060914307E0,4.454586639E0,-5.170098724E0,7.128859006E0
1.444433342E1,-1.504970398E0,4.387825470E0,-7.977360992E0,9.228013690E0
1.445428642E1,-1.088985443E0,4.525389404E0,-8.066725159E0,9.313275114E0
1.446423842E1,-2.680924988E-1,5.145250397E0,-8.680149536E0,1.009408100E1
1.447419142E1,7.194039917E-1,4.806355133E0,-8.276139679E0,9.597555926E0
1.448414342E1,8.729846191E-1,5.465284882E0,-1.047312103E1,1.184557745E1
1.449409642E1,-5.210664368E-1,5.028642883E0,-1.180954193E1,1.284616830E1
1.450404942E1,-2.399210815E0,5.419330444E0,-9.688901825E0,1.135782433E1
1.451400142E1,-3.625311127E0,4.979395294E0,-7.587272186E0,9.772612624E0
1.452395442E1,-3.972738647E0,4.603826294E0,-6.758146362E0,9.091227154E0
1.453390642E1,-3.830684052E0,5.030139771E0,-7.013215942E0,9.442544375E0
1.454385942E1,-3.917503510E0,4.864284668E0,-7.576943665E0,9.819275654E0
1.455381242E1,-4.214635620E0,4.118236084E0,-6.970404968E0,9.127407478E0
1.456376442E1,-3.782933350E0,3.621718597E0,-6.967111816E0,8.715966807E0
1.457371742E1,-2.621348877E0,3.692970428E0,-7.148085480E0,8.461951698E0
1.458366942E1,-1.357826385E0,3.902235260E0,-7.059320068E0,8.179555755E0
1.459362242E1,-1.222956848E-1,4.108506317E0,-7.681576080E0,8.712140464E0
1.460357442E1,5.209167480E-2,4.226161652E0,-8.004155273E0,9.051500289E0
1.461352742E1,-1.279838562E-1,4.316723328E0,-7.969427490E0,9.064339726E0
1.462348042E1,-3.796105957E-1,4.287534027E0,-7.483537903E0,8.633098620E0
1.463343242E1,-1.135239258E0,4.369413757E0,-7.668702850E0,8.898850946E0
1.464338542E1,-1.593735809E0,4.396058350E0,-7.798932037E0,9.093330730E0
1.465333742E1,-2.848576355E-1,5.244643707E0,-7.813601532E0,9.414871236E0
1.466329042E1,-5.029541016E-1,5.056634674E0,-7.638465729E0,9.174348791E0
1.467324342E1,-9.726773071E-1,5.420378265E0,-9.670340424E0,1.112843590E1
1.468319542E1,-7.668553162E-1,6.306984558E0,-1.335882019E1,1.479270760E1
1.469314842E1,1.414558411E-1,6.793173523E0,-1.155058044E1,1.340086284E1
1.470310042E1,2.077679443E-1,6.709347839E0,-7.239844666E0,9.872885431E0
1.471305342E1,-9.512718201E-1,7.475754089E0,-5.549110565E0,9.358656172E0
1.472300542E1,-1.233584747E0,8.663534088E0,-7.156318359E0,1.130448790E1
1.473295842E1,-1.180295563E0,8.581654358E0,-6.868167572E0,1.105484577E1
1.474291142E1,-1.802850952E0,8.553063812E0,-7.493567047E0,1.151341475E1
1.475286342E1,-1.922901306E0,5.503006439E0,-9.328152008E0,1.099977496E1
1.476281642E1,-9.081614685E-1,6.503825226E0,-1.097921860E1,1.279326936E1
1.477276842E1,-1.729802856E0,7.013365631E0,-1.360101654E1,1.540023267E1
1.478272142E1,-5.432203674E0,5.626799011E0,-1.464210159E1,1.660002539E1
1.479267342E1,-8.076005859E0,7.433841248E0,-1.285736298E1,1.690549168E1
1.480262642E1,-6.962920532E0,1.169787415E1,-1.037043457E1,1.711339928E1
1.481257942E1,-4.986430664E0,1.531644928E1,-1.124641296E1,1.964535349E1
1.482253142E1,-2.443518677E0,1.444825470E1,-1.257714569E1,1.931081151E1
1.483248442E1,3.957769775E-1,1.093865295E1,-1.161809006E1,1.596216729E1
1.484243642E1,1.487307129E0,9.866282959E0,-1.143187729E1,1.517377475E1
1.485238942E1,9.548643494E-1,7.999514923E0,-1.207314377E1,1.451429659E1
1.486234242E1,-2.559677124E-1,7.783514099E0,-1.154938293E1,1.392971132E1
1.487229442E1,-1.720971222E0,8.359067230E0,-1.102741837E1,1.394416375E1
1.488224742E1,-2.435136108E0,9.381590881E0,-1.095496902E1,1.462721715E1
1.489219942E1,-2.222428436E0,9.689350891E0,-1.146346161E1,1.517345250E1
1.490215242E1,-1.951342163E0,1.109388016E1,-1.210936844E1,1.653840129E1
1.491210442E1,-1.976789246E0,1.112830856E1,-1.225456650E1,1.667097319E1
1.492205742E1,-2.294578400E0,1.047147446E1,-1.201102295E1,1.609911611E1
1.493201042E1,-2.255809021E0,1.000998413E1,-1.169488037E1,1.555823523E1
1.494196242E1,-2.104773102E0,9.874216461E0,-1.178783707E1,1.552041634E1
1.495191542E1,-1.851649475E0,9.814640350E0,-1.164039368E1,1.533800952E1
1.496186742E1,-1.318607941E0,9.345366211E0,-1.076022400E1,1.431282701E1
1.497182042E1,-1.080303497E0,1.059242294E1,-8.384214935E0,1.355217841E1
1.498177342E1,-1.783690796E0,8.973240051E0,-7.625293121E0,1.190989862E1
1.499172542E1,-2.848127289E0,7.423363037E0,-7.254214783E0,1.076298193E1
1.500167842E1,-3.093766479E0,9.068741455E0,-6.298901367E0,1.146689239E1
1.501163042E1,-3.022814026E0,9.146878967E0,-4.940625916E0,1.082647606E1
1.502158342E1,-2.357297974E0,4.399052124E0,-4.399201813E0,6.652930927E0
1.503153542E1,-2.582130432E0,3.510649567E0,-5.180427246E0,6.769703420E0
1.504148842E1,-2.267185364E0,2.153571625E0,-4.948858795E0,5.853990399E0
1.505144142E1,-1.709445190E0,1.169068909E-1,-3.780388641E0,4.150567234E0
1.506139342E1,-1.157093811E0,4.553530884E-1,-1.551523590E0,1.988325419E0
1.507134642E1,-8.107141113E-1,1.732946320E0,1.619631958E-1,1.920050102E0
1.508129842E1,-1.390159149E0,3.365301819E0,-1.128652954E-1,3.642874877E0
1.509125142E1,-2.292632446E0,4.377197571E0,-9.009764099E-1,5.022726411E0
1.510120342E1,-3.096011810E0,4.994513855E0,-1.508413239E0,6.066775773E0
1.511115642E1,-3.268752594E0,5.431155853E0,-2.113455048E0,6.681982465E0
1.512110942E1,-2.900518341E0,5.863456879E0,-2.435585175E0,6.980344430E0
1.513106142E1,-2.258204041E0,5.664370880E0,-2.659369812E0,6.652580759E0
1.514101442E1,-1.647923126E0,5.458997955E0,-3.489842834E0,6.685455281E0
1.515096642E1,-1.562600555E0,6.068380737E0,-5.190007324E0,8.136531281E0
1.516091942E1,-2.168989563E0,6.860683136E0,-6.590195618E0,9.757262275E0
1.517087242E1,-2.758613434E0,7.142546997E0,-6.484066315E0,1.003339632E1
1.518082404E1,-2.894381104E0,7.030879211E0,-5.015769653E0,9.108712844E0
1.519077704E1,-2.538271637E0,6.518494720E0,-3.993246002E0,8.054788014E0
1.520072904E1,-1.992805939E0,5.915997620E0,-4.076772308E0,7.455895372E0
1.521068204E1,-1.564247131E0,5.494025116E0,-4.517904968E0,7.283038265E0
1.522063404E1,-1.407523041E0,5.154231720E0,-4.387226715E0,6.913391641E0
1.523058704E1,-1.369502106E0,4.131857758E0,-4.104315033E0,5.982740713E0
1.524054004E1,-1.208886108E0,3.072959747E0,-5.034331055E0,6.020712283E0
1.525049204E1,-9.764195251E-1,2.764451294E0,-5.837860107E0,6.532702096E0
1.526044504E1,-6.659651184E-1,3.573668518E0,-5.897885284E0,6.928179201E0
1.527039704E1,-2.674937439E-1,4.985532532E0,-6.173462219E0,7.939692897E0
1.528035004E1,3.333567810E-1,6.002068634E0,-6.069278870E0,8.542370902E0
1.529030304E1,7.153623962E-1,6.460265808E0,-6.047274628E0,8.877854926E0
1.530025504E1,3.110531616E-1,7.184609528E0,-6.728957062E0,9.848564935E0
1.531020804E1,-5.337899780E-1,8.143066406E0,-7.168592834E0,1.086200651E1
1.532016004E1,-1.605860596E0,8.892557831E0,-7.220983887E0,1.156715096E1
1.533011304E1,-2.744542694E0,8.791368256E0,-7.012916565E0,1.157590900E1
1.534006504E1,-3.497327271E0,8.013885040E0,-6.990912323E0,1.119493218E1
1.535001804E1,-3.935166779E0,7.287595367E0,-7.008575592E0,1.084964127E1
1.535997104E1,-3.965703278E0,6.633605347E0,-6.621929626E0,1.017749843E1
1.536992304E1,-3.427871704E0,5.855523376E0,-5.904920654E0,8.994751045E0
1.537987604E1,-2.465073853E0,4.599635010E0,-5.387596436E0,7.500628419E0
1.538982804E1,-1.309626617E0,2.843187561E0,-5.194647675E0,6.064915650E0
1.539978104E1,-1.145118713E-1,1.017134857E0,-5.557493134E0,5.650965069E0
1.540973304E1,9.587562561E-1,-1.564247131E-1,-6.047574005E0,6.125098660E0
1.541968604E1,9.208850098E-1,-1.145268402E0,-6.360124054E0,6.527698438E0
1.542963904E1,6.002517700E-2,-1.623224487E0,-7.270530853E0,7.449770443E0
1.543959104E1,-6.839277649E-1,-1.124761047E0,-8.150251465E0,8.255873276E0
1.544954404E1,-1.105451202E0,-6.197113037E-2,-9.151219940E0,9.217954718E0
1.545949604E1,-1.243913269E0,1.152303772E0,-9.936636658E0,1.008027144E1
1.546944904E1,-1.358275452E0,1.773362274E0,-9.672885132E0,9.927458523E0
1.547940204E1,-2.056423645E0,1.609602814E0,-9.278006287E0,9.638521675E0
1.548935404E1,-3.107986908E0,1.188378754E0,-9.590556335E0,1.015138402E1
1.549930704E1,-3.845203857E0,8.774752808E-1,-1.035277130E1,1.107860231E1
1.550925904E1,-3.737427979E0,8.473878479E-1,-1.116303635E1,1.180253424E1
1.551921204E1,-3.064427490E0,1.099463654E0,-1.173230255E1,1.217565026E1
1.552916404E1,-2.793640594E0,7.415579224E-1,-1.211385910E1,1.245391176E1
1.553911704E1,-2.618355103E0,6.242019653E-1,-1.084509750E1,1.117414656E1
1.554907004E1,-2.916984100E0,9.461824036E-1,-9.203610992E0,9.701057297E0
1.555902204E1,-2.943029938E0,1.719324646E0,-7.946674805E0,8.646799576E0
1.556897504E1,-2.314337311E0,2.547252960E0,-7.195985870E0,7.976645127E0
1.557892704E1,-2.077978821E0,2.372566223E0,-6.686295776E0,7.392808510E0
1.558888004E1,-2.201621704E0,2.184856567E0,-6.030808868E0,6.781695360E0
1.559883204E1,-2.321522369E0,2.481689301E0,-4.905898132E0,5.967921278E0
1.560878504E1,-2.653831329E0,3.467090149E0,-3.522774353E0,5.610122456E0
1.561873804E1,-2.856509857E0,5.095254364E0,-3.601360931E0,6.862293068E0
1.562869004E1,-2.915038147E0,6.360273743E0,-4.324058075E0,8.224840893E0
1.563864304E1,-2.764600983E0,7.233108673E0,-4.491410065E0,8.951739721E0
1.564859504E1,-2.559377747E0,7.288493500E0,-4.825365601E0,9.108057154E0
1.565854804E1,-2.180216217E0,7.176226959E0,-4.956193542E0,8.989740294E0
1.566850104E1,-1.546134796E0,8.161478119E0,-3.614982605E0,9.059158743E0
1.567845304E1,-4.808001709E-1,9.849817200E0,-3.376079407E0,1.042343417E1
1.568840604E1,-1.317859497E0,8.388705597E0,-1.154818542E1,1.433414531E1
1.569835804E1,-2.935994568E0,4.137246552E0,-1.627056519E1,1.704312661E1
1.570831104E1,-3.825894012E0,-2.730322266E-1,-1.070409073E1,1.137055715E1
1.571826304E1,-3.146157532E0,-3.864663391E0,-4.888534241E0,6.980809220E0
1.572821604E1,-2.075434113E0,-5.091212769E0,-1.775158539E0,5.777461557E0
1.573816904E1,-1.408421173E0,-4.502337341E0,-1.163829803E0,4.858929054E0
1.574812104E1,-1.052162018E0,-2.652633820E0,-1.447190552E0,3.199667418E0
1.575807404E1,-1.683399353E0,2.243684235E0,-1.558409271E0,3.208830283E0
1.576802604E1,-2.589614868E0,5.602699127E0,-4.017046509E0,7.364306168E0
1.577797904E1,-3.459306335E0,5.982908478E0,-5.617817688E0,8.906282600E0
1.578793204E1,-3.210224304E0,5.169949036E0,-6.062692566E0,8.590119572E0
1.579788404E1,-2.079475708E0,4.860841827E0,-6.103258209E0,8.074760879E0
1.580783704E1,-8.779243469E-1,4.470902710E0,-6.841073914E0,8.219489917E0
1.581778904E1,-6.962022400E-1,4.154311066E0,-8.066126404E0,9.099746873E0
1.582774204E1,-1.300345917E0,4.277504883E0,-8.656947784E0,9.743238295E0
1.583769404E1,-1.504820709E0,4.865332489E0,-8.993597717E0,1.033541221E1
1.584764704E1,-1.775008850E0,4.383783875E0,-8.857231293E0,1.004085473E1
1.585760004E1,-1.597777405E0,3.597469025E0,-1.066621948E1,1.136938495E1
1.586755204E1,-2.071242828E0,4.121828613E0,-1.268641846E1,1.349906409E1
1.587750504E1,-2.251468048E0,5.313350830E0,-1.251158203E1,1.377826151E1
1.588745704E1,-2.016606445E0,6.498586121E0,-1.005848328E1,1.214378067E1
1.589741004E1,-1.417552185E0,6.860383759E0,-8.455915833E0,1.098074825E1
1.590736204E1,-1.090182953E0,5.912405090E0,-8.218659210E0,1.018289704E1
1.591731504E1,-1.591789856E0,6.353238373E0,-8.560548248E0,1.077870211E1
1.592726804E1,-2.623145142E0,8.269403687E0,-7.967481537E0,1.177899358E1
1.593722004E1,-3.997586975E0,8.931626587E0,-7.806266785E0,1.251768574E1
1.594717304E1,-5.215304718E0,9.584269409E0,-8.322094116E0,1.372278667E1
1.595712504E1,-4.481231232E0,6.280040588E0,-7.968978424E0,1.109166175E1
1.596707804E1,-3.367696838E0,3.044518890E0,-8.779542847E0,9.883868163E0
1.597703104E1,-2.720143433E0,3.287912750E0,-9.348809052E0,1.027666197E1
1.598698304E1,-2.686014404E0,4.994663544E0,-9.267677765E0,1.086513638E1
1.599693604E1,-2.699636078E0,7.731272736E0,-9.108708344E0,1.224863996E1
1.600688804E1,-1.774559784E0,9.817334747E0,-8.505762177E0,1.311019123E1
1.601684104E1,-1.047671356E0,1.102502335E1,-7.022796021E0,1.311367298E1
1.602679304E1,-1.320703583E0,1.136870865E1,-6.083798676E0,1.296165115E1
1.603674604E1,-2.389031982E0,1.058778259E1,-6.136788483E0,1.246871232E1
1.604669904E1,-2.746638336E0,1.069870193E1,-5.612578583E0,1.238980563E1
1.605665104E1,-4.330045624E0,1.007929001E1,-1.608105927E0,1.108726237E1
1.606660404E1,-6.184389496E0,8.096064148E0,6.706054688E-1,1.020992849E1
1.607655604E1,-6.668183441E0,6.587351532E0,-2.068698120E-1,9.375535490E0
1.608650904E1,-6.500382385E0,5.862858124E0,-2.301164703E0,9.051156585E0
1.609646104E1,-5.744604034E0,5.310656433E0,-5.005590820E0,9.287598544E0
1.610641404E1,-5.258714447E0,4.970264282E0,-7.196135559E0,1.020499739E1
1.611636704E1,-4.365222473E0,4.959636383E0,-8.476872253E0,1.074758222E1
1.612631904E1,-2.691702576E0,5.734425201E0,-9.217981110E0,1.118481430E1
1.613627204E1,-9.071136475E-1,6.497837677E0,-8.860225067E0,1.102489628E1
1.614622404E1,-2.905458069E-1,8.211174774E0,-9.642049255E0,1.266794861E1
1.615617704E1,-6.002517700E-1,9.479786682E0,-1.083027832E1,1.440560954E1
1.616612904E1,-1.559157715E0,1.017763550E1,-1.133472931E1,1.531310960E1
1.617608204E1,-2.729723511E0,9.714797974E0,-1.052446426E1,1.458057057E1
1.618603554E1,-3.270997925E0,8.407716064E0,-9.131461029E0,1.283638179E1
1.619598754E1,-2.999163208E0,5.998625793E0,-8.888067169E0,1.113446134E1
1.620594054E1,-2.185904388E0,4.513264618E0,-8.584797821E0,9.942157167E0
1.621589254E1,-8.093669128E-1,4.349804535E0,-8.069120178E0,9.202530888E0
1.622584554E1,4.601431274E-1,5.417534180E0,-6.967111816E0,8.837536724E0
1.623579854E1,9.238787842E-1,7.364834747E0,-5.648204498E0,9.327194483E0
1.624575054E1,7.494914246E-1,9.515113220E0,-5.071753235E0,1.080841329E1
1.625570354E1,3.047662354E-1,1.125763962E1,-4.481829987E0,1.212081401E1
1.626565554E1,-7.933502197E-2,1.216250793E1,-3.866160278E0,1.276244838E1
1.627560854E1,-7.714956665E-1,1.232611771E1,-3.456611938E0,1.282484110E1
1.628556054E1,-1.999242554E0,1.158171570E1,-4.223766632E0,1.248892765E1
1.629551354E1,-2.596799927E0,1.043524979E1,-5.238656158E0,1.196166068E1
1.630546654E1,-3.512894897E0,9.228609009E0,-5.778134308E0,1.144091303E1
1.631541854E1,-4.656516724E0,8.013735352E0,-6.247857513E0,1.117760376E1
1.632537154E1,-5.348228302E0,7.131020966E0,-6.782845001E0,1.120098176E1
1.633532354E1,-5.957311707E0,6.391858063E0,-7.126230927E0,1.127513102E1
1.634527654E1,-6.005960541E0,6.003864899E0,-7.194488983E0,1.113007760E1
1.635522854E1,-5.122797089E0,5.860313416E0,-7.127578125E0,1.055408420E1
1.636518154E1,-4.049229584E0,5.734275513E0,-6.859335938E0,9.814716775E0
1.637513454E1,-3.310665436E0,5.293891296E0,-6.851252747E0,9.269598421E0
1.638508654E1,-3.289858704E0,4.695585480E0,-7.212751007E0,9.213873799E0
1.639503954E1,-3.999832306E0,4.109105072E0,-8.001610565E0,9.844245761E0
1.640499154E1,-4.445755005E0,3.557951202E0,-8.758885803E0,1.044709696E1
1.641494454E1,-4.611460419E0,3.107837219E0,-8.854387207E0,1.045583054E1
1.642489654E1,-4.661306763E0,2.989283752E0,-8.724008331E0,1.033304986E1
1.643484954E1,-3.887116699E0,2.495760040E0,-8.878337402E0,1.000816514E1
1.644480254E1,-4.543202362E0,3.232976990E0,-7.294481049E0,9.181627399E0
1.645475454E1,-5.436694336E0,5.097050629E0,-2.519859924E0,7.866845902E0
1.646470754E1,-2.392175446E0,3.581152954E0,-5.736071777E0,7.172843180E0
1.647465954E1,3.013233948E-1,2.920726318E0,-6.606511688E0,7.229622030E0
1.648461254E1,2.597248993E0,1.229992218E0,-5.873186646E0,6.538570529E0
1.649456454E1,1.581461334E0,5.493576050E-1,-3.948638763E0,4.288888179E0
1.650451754E1,4.730163574E-1,8.122109985E-1,-6.831493835E0,6.895849419E0
1.651447054E1,-5.131329346E-1,2.159259796E0,-6.794371033E0,7.147669970E0
1.652442254E1,-1.268611908E0,4.828209686E0,-7.704029388E0,9.180035608E0
1.653437554E1,-9.461824036E-1,7.344477081E0,-6.339317322E0,9.748002300E0
1.654432754E1,5.875282288E-1,9.319320374E0,-4.430337067E0,1.033551199E1
1.655428054E1,2.228865051E0,9.147627411E0,-3.451672211E0,1.002800916E1
1.656423254E1,2.654430084E0,7.001989288E0,-4.865781555E0,8.930267813E0
