"Time (s)","Linear Acceleration x (m/s^2)","Linear Acceleration y (m/s^2)","Linear Acceleration z (m/s^2)","Absolute acceleration (m/s^2)"
3.012041678E-3,-8.765682314E-1,8.382451415E-2,-5.472993851E-3,8.805841057E-1
1.296404167E-2,-3.134867728E-2,8.447969466E-1,6.894685864E-2,8.481852922E-1
2.291704167E-2,4.488542005E-1,4.687303483E-1,2.551736605E-1,6.973462768E-1
3.286904166E-2,8.916068316E-2,3.050907558E-1,1.726758796E-1,3.617277375E-1
4.282104166E-2,-2.213293916E-1,9.642760277E-1,-1.621234095E-1,1.002546237E0
5.277304165E-2,-9.654514642E-1,1.107512931E0,-2.043905926E-1,1.483393722E0
6.272604165E-2,-1.502472906E0,1.046973199E-1,-2.318134493E-1,1.523851645E0
7.267804164E-2,-1.111210564E0,-2.943587762E-1,2.736362439E-1,1.181656803E0
8.263004175E-2,-3.680640990E-1,-4.574803054E-2,7.140245533E-1,8.046086788E-1
9.258204175E-2,2.094285536E-1,7.403627515E-2,1.069622388E0,1.092443931E0
1.025350417E-1,4.986207300E-1,-2.388610983E-1,1.132972877E0,1.260676325E0
1.124870417E-1,6.485309140E-1,-5.253349042E-1,9.856516939E-1,1.291541083E0
1.224390417E-1,7.946394577E-1,-5.029435766E-1,7.539622056E-1,1.205347716E0
1.323920417E-1,8.598250218E-1,-3.711847579E-1,3.772044665E-1,1.009633796E0
1.423440417E-1,9.094501948E-1,-3.017824012E-1,-7.413684726E-2,9.610767642E-1
1.522960417E-1,9.511450817E-1,-3.226604694E-1,-4.002378184E-1,1.081192423E0
1.622480417E-1,1.069812423E0,-3.520719641E-1,-6.399151880E-1,1.295355062E0
1.722010417E-1,1.300444881E0,-3.506481671E-1,-7.432805121E-1,1.538368274E0
1.821530417E-1,1.500146737E0,-3.917365515E-1,-7.153682435E-1,1.707527301E0
1.921050417E-1,1.699409029E0,-4.116106528E-1,-7.259996510E-1,1.893274907E0
2.020570417E-1,1.762306359E0,-4.667879033E-1,-6.624825168E-1,1.939715890E0
2.120100417E-1,1.516809840E0,-8.401261908E-1,-1.035545985E0,2.019623627E0
2.219620417E-1,1.090432629E-3,-2.142088863E0,-6.780899048E-2,2.143162137E0
2.319140417E-1,3.707977600E0,6.667404592E-2,-1.768426055E-1,3.712790947E0
2.418660417E-1,3.229424514E0,2.111815488E-1,2.676288146E-1,3.247369015E0
2.518190417E-1,2.823630964E0,-9.806254274E-1,1.254080992E0,3.241486878E0
2.617710417E-1,2.701737275E0,-6.174431688E-1,1.224995188E0,3.030055045E0
2.717230417E-1,1.435852801E0,-5.128855973E-1,1.571845003E0,2.189845112E0
2.816760417E-1,-1.582481673E-1,-2.242261022E-1,1.871275070E0,1.891293265E0
2.916280417E-1,-1.202626956E0,4.267970413E-1,1.665457757E0,2.098146051E0
3.015800416E-1,-1.074899866E0,3.155028927E-1,1.584257473E0,1.940315319E0
3.115320418E-1,6.106589368E-1,-2.682743472E-1,1.716647791E0,1.841671822E0
3.214850418E-1,1.515441153E0,-4.931816500E-1,1.881147509E0,2.465462630E0
3.314370418E-1,6.771277454E-1,4.924121565E-1,1.598103679E0,1.804136105E0
3.413890417E-1,-8.506446008E-1,1.800487508E0,1.711830270E0,2.625969226E0
3.513410417E-1,-1.277706375E0,1.199507174E0,2.378245039E0,2.954217410E0
3.612940417E-1,1.703312923E-1,1.425455866E0,1.865513223E-1,1.447666596E0
3.712460417E-1,2.564208716E0,2.052637573E0,-2.441102023E0,4.092366849E0
3.811980417E-1,3.419568073E0,3.034913669E0,-1.192060161E0,4.724950181E0
3.911500417E-1,2.555716805E0,4.290350631E0,-1.842112666E-1,4.997272327E0
4.011030417E-1,2.305411098E0,4.805107922E0,4.566850841E-1,5.349069427E0
4.110550417E-1,2.475087794E0,4.290821916E0,1.589163287E0,5.202177646E0
4.210070417E-1,2.886497887E0,3.459193484E0,3.179982505E0,5.514542442E0
4.309600417E-1,3.390542495E0,2.518446068E0,4.857040552E0,6.436551245E0
4.409120417E-1,3.693786407E0,1.760243461E0,5.877136440E0,7.161232282E0
4.508640417E-1,3.444691512E0,1.057301136E0,5.668659228E0,6.716954872E0
4.608160417E-1,2.346454020E0,4.846593332E-1,4.384883736E0,4.996793623E0
4.707690417E-1,1.128035780E0,-3.909816760E-1,2.703148500E0,2.955053842E0
4.807210417E-1,4.431224674E-2,-1.533269168E0,1.401488714E0,2.077750835E0
4.906730417E-1,-8.207186973E-1,-2.814829735E0,4.676065135E-1,2.969091017E0
5.006250417E-1,-1.391250532E0,-3.969691079E0,-1.526655382E-1,4.209196131E0
5.105780417E-1,-1.842529865E0,-4.752049702E0,-3.851420617E-1,5.111284289E0
5.205300417E-1,-2.757548948E0,-4.737253323E0,-6.952807188E-2,5.481831756E0
5.304820416E-1,-4.242702840E0,-4.242023978E0,2.248973626E-1,6.003821587E0
5.404340416E-1,-5.368856109E0,-3.850742340E0,-1.294690490E-2,6.607041707E0
5.503870416E-1,-5.559817986E0,-3.694971346E0,-4.572054863E-1,6.691294803E0
5.603390418E-1,-5.405881264E0,-3.525419633E0,-3.041701117E-1,6.461010392E0
5.702910417E-1,-5.113000664E0,-3.407560816E0,2.087514460E-1,6.147993467E0
5.802440417E-1,-4.508665198E0,-3.567869834E0,7.669804466E-1,5.800518600E0
5.901960417E-1,-4.076217992E0,-3.619869708E0,1.034483546E0,5.548798611E0
6.001480417E-1,-3.882775142E0,-3.632209672E0,1.028667905E0,5.415445278E0
6.101000417E-1,-3.577296131E0,-3.551294147E0,7.263265103E-1,5.092768199E0
6.200530417E-1,-3.010975753E0,-3.112863486E0,4.315420568E-1,4.352254888E0
6.300052917E-1,-2.396379009E0,-2.646633407E0,5.175224394E-1,3.607648849E0
6.399572917E-1,-1.837910565E0,-2.416988105E0,9.644368261E-1,3.185888438E0
6.499092916E-1,-1.697146449E0,-2.164583686E0,1.407228341E0,3.089663446E0
6.598622916E-1,-1.656710614E0,-2.061960958E0,1.520427513E0,3.050913449E0
6.698142916E-1,-1.379999612E0,-2.207103469E0,1.484939591E0,2.996789989E0
6.797662918E-1,-7.945450982E-1,-2.375581048E0,1.467456416E0,2.903121692E0
6.897182917E-1,-7.688211501E-2,-2.119013411E0,1.398783208E0,2.540221084E0
6.996712917E-1,5.598337689E-1,-1.418484231E0,1.365373387E0,2.046889310E0
7.096232917E-1,1.265105333E0,-5.840315938E-1,1.164322431E0,1.815827946E0
7.195752917E-1,1.780540608E0,2.543568045E-1,6.803333353E-1,1.922986139E0
7.295272917E-1,1.741795203E0,9.785338783E-1,1.400026618E-1,2.002743076E0
7.394802917E-1,1.421711017E0,1.397865195E0,-5.419841199E-1,2.066164588E0
7.494322917E-1,1.035446290E0,1.550486294E0,-1.283366772E0,2.263445833E0
7.593842917E-1,8.915024588E-1,1.688176528E0,-1.760465217E0,2.596912475E0
7.693372917E-1,9.298645788E-1,1.759618979E0,-1.913408936E0,2.760804383E0
7.792892917E-1,8.886273828E-1,1.785465426E0,-1.778105536E0,2.671929024E0
7.892412917E-1,9.855920523E-1,1.681070992E0,-1.337521929E0,2.363547394E0
7.991932917E-1,1.370477421E0,1.475986919E0,-5.595529564E-1,2.090417484E0
8.091462917E-1,2.007153252E0,1.117792336E0,3.222189315E-1,2.319902783E0
8.190982917E-1,2.610712792E0,6.315127391E-1,1.059875519E0,2.887553590E0
8.290502917E-1,2.734931918E0,3.808917207E-1,1.686538723E0,3.235636562E0
8.390022917E-1,2.515369263E0,2.545064932E-1,2.008029749E0,3.228628123E0
8.489552917E-1,2.322834777E0,3.879861474E-2,2.105304029E0,3.135182895E0
8.589072917E-1,2.462544055E0,-2.123211712E-1,1.672849222E0,2.984564963E0
8.688592917E-1,2.307674116E0,-4.733736223E-1,1.009510673E0,2.562919080E0
8.788112917E-1,1.748190596E0,-7.494066399E-1,4.012376557E-1,1.943906460E0
8.887642917E-1,1.186281942E0,-9.485066718E-1,-1.091107982E-1,1.522772117E0
8.987162916E-1,6.823346910E-1,-1.105303268E0,-1.206748549E-1,1.304545271E0
9.086682918E-1,2.912720311E-1,-9.879490650E-1,3.461323625E-1,1.086595768E0
9.186212918E-1,6.351742655E-2,-8.399490201E-1,7.243367028E-1,1.110951160E0
9.285732917E-1,-1.578485101E-1,-8.092347658E-1,7.664226222E-1,1.125691207E0
9.385252917E-1,-3.250186515E-1,-8.487151659E-1,2.760388831E-1,9.498168358E-1
9.484772917E-1,-3.534367043E-1,-1.109213886E0,-4.259088492E-1,1.239625466E0
9.584302917E-1,-3.140501520E-1,-1.552774310E0,-1.030192859E0,1.889717672E0
9.683822917E-1,-8.909852725E-1,-2.119998082E0,-1.463806000E0,2.725981406E0
9.783342917E-1,-1.434950575E0,-2.944410465E0,-1.604736761E0,3.647439679E0
9.882862917E-1,-1.451542342E0,-3.845687422E0,-1.243802757E0,4.294570085E0
9.982392917E-1,-1.258779522E0,-4.615773325E0,-4.642098294E-1,4.806805596E0
1.008191292E0,-5.648609126E-1,-5.218978524E0,-3.633631568E-2,5.249583318E0
1.018143292E0,3.671031091E-1,-5.149751583E0,-1.543431044E-2,5.162842655E0
1.028095292E0,8.354346773E-1,-4.575073196E0,1.220922017E-1,4.652327627E0
1.038048292E0,7.698142996E-1,-3.613471100E0,-4.413671333E-1,3.720832218E0
1.048000292E0,1.030903588E0,-1.750830613E0,-9.860300088E-1,2.258412102E0
1.057952292E0,1.473094009E0,-4.273086727E-2,-1.089293007E0,1.832591373E0
1.067904292E0,1.453031628E0,3.957570970E-1,-6.830815997E-1,1.653639944E0
1.077857292E0,2.009773097E0,4.851692689E0,3.962816653E-1,5.266417094E0
1.087809292E0,4.703080441E0,5.776047437E0,-6.812883317E-2,7.448914764E0
1.097761292E0,4.411863958E0,4.071720314E0,1.578105032E0,6.207565174E0
1.107714292E0,3.503873813E0,7.564022487E0,1.815514267E0,8.531568434E0
1.117666292E0,5.216785233E0,4.544249014E0,8.106650678E-1,6.965789626E0
1.127618292E0,4.682466082E0,2.183293022E0,-7.163897520E-1,5.215886435E0
1.137570292E0,3.446706755E0,8.484695828E-1,-2.888531549E0,4.576385320E0
1.147523292E0,3.557049562E0,3.947104454E-2,-4.041300175E0,5.383889547E0
1.157475292E0,4.256492329E0,-1.217148809E0,-3.541043394E0,5.669053403E0
1.167427292E0,3.991618137E0,3.702100271E-1,-3.670379126E0,5.435232631E0
1.177379292E0,3.370782999E0,1.062888150E0,-3.712021827E0,5.125525855E0
1.187332292E0,1.710613903E0,7.318369263E-1,-2.707133378E0,3.284867781E0
1.197284292E0,-8.417060354E-1,1.985778755E0,-1.981642435E0,2.928940602E0
1.207236292E0,-1.286643552E0,1.534332191E0,-1.009591949E-1,2.004948793E0
1.217188292E0,-8.905023656E-1,-9.571190357E-2,2.041562946E0,2.229379846E0
1.227141292E0,-8.960360974E-2,-1.455006525E0,2.865273664E0,3.214788634E0
1.237093292E0,-1.200648990E-1,-1.875625398E0,1.235780377E0,2.249341982E0
1.247045292E0,-9.785393601E-1,-1.468269179E0,-2.393126203E0,2.973282140E0
1.256997292E0,-7.880826824E-1,-1.546292671E0,-3.943846385E0,4.308830427E0
1.266950292E0,-1.239407989E-1,-1.287508940E0,-2.983118448E0,3.251466787E0
1.276902292E0,-3.294145882E-1,-7.222012997E-1,-7.631234770E-1,1.101111316E0
1.286854292E0,-3.089737456E-1,-5.608772045E-1,1.573441878E0,1.698754649E0
1.296807292E0,6.685703453E-1,-1.222613032E0,3.374403595E0,3.650803823E0
1.306759292E0,1.293350893E0,-8.686389685E-1,3.013605831E0,3.392507965E0
1.316711292E0,1.294919701E0,1.015552016E0,1.510531685E0,2.233801446E0
1.326663292E0,1.459101915E0,1.774862670E0,7.930087423E-1,2.430633407E0
1.336616292E0,1.690736439E0,1.598822302E0,2.608961843E-1,2.341557020E0
1.346568292E0,1.826569305E0,9.727416265E-1,-8.912516132E-2,2.071358248E0
1.356520292E0,2.018008900E0,-1.406284600E-1,-3.031655601E-1,2.045493985E0
1.366472292E0,1.878589936E0,8.025069594E-1,2.651764923E-1,2.059960228E0
1.376425292E0,2.739167641E0,1.618637931E0,-3.089219977E-1,3.196632747E0
1.386377292E0,2.819675615E0,1.135956711E0,-5.607678616E-1,3.091185665E0
1.396329292E0,1.924918011E0,6.954912186E-1,3.997951841E-1,2.085390508E0
1.406281292E0,1.765701691E0,1.108807504E-2,8.849344276E-1,1.975078314E0
1.416234292E0,1.697335461E0,8.222799039E-1,9.403117990E-1,2.107434029E0
1.426186292E0,1.462643719E0,1.183622628E0,-1.144350535E0,2.202232350E0
1.436138292E0,9.433480389E-1,1.015397065E0,1.015229688E0,1.718030279E0
1.446090292E0,3.567256900E-1,7.817961216E-1,4.421630563E0,4.504361800E0
1.456043292E0,-2.970409671E-1,-1.687957258E0,-1.514808923E-1,1.720575340E0
1.465995292E0,-2.313034844E0,-2.675708687E0,-4.305956849E0,5.572325507E0
1.475947292E0,-3.380294372E0,-2.077094137E0,8.427114787E0,9.314342367E0
1.485899292E0,-2.802415803E0,-2.040322752E0,1.049369095E-1,3.468063296E0
1.495852292E0,-1.348196752E0,-1.335013474E0,-7.415560513E0,7.654438789E0
1.505804292E0,-7.022068188E-1,-1.733091331E-1,-8.497916383E-1,1.115919487E0
1.515756292E0,6.133543570E-1,2.866881064E0,3.783257285E0,4.786255978E0
1.525709292E0,9.657597587E-2,1.319224237E0,-3.254372537E0,3.512921877E0
1.535661292E0,1.868382744E-1,5.715752703E-1,-1.383568168E0,1.508597927E0
1.545613292E0,1.505439929E0,9.261176831E-1,-5.284372906E-1,1.844800616E0
1.555565292E0,1.488517941E0,1.517849475E-1,-9.575903213E-1,1.776430003E0
1.565518292E0,2.802862823E-1,-6.764339733E-1,-1.832425146E0,1.973298060E0
1.575470292E0,-1.393174997E0,-1.388207933E0,-1.424302211E0,2.428311064E0
1.585422292E0,-2.395299321E0,-1.693976966E0,-5.884485805E-1,2.992204627E0
1.595374292E0,-2.889538440E0,-1.449711871E0,4.325507015E-1,3.261624904E0
1.605327292E0,-3.102288796E0,-1.287443451E0,1.182102425E0,3.560768535E0
1.615279292E0,-3.148298782E0,-1.387378213E0,1.710632175E0,3.842247515E0
1.625231292E0,-2.744888265E0,-9.627844030E-1,2.559829152E0,3.874802018E0
1.635185417E0,-1.161981426E0,2.118721050E-1,2.828571276E0,3.065274227E0
1.645138417E0,-1.332262505E-1,1.542591968E0,2.958001149E0,3.338728801E0
1.655090417E0,4.491670266E-2,2.163934645E0,2.908540136E0,3.625498087E0
1.665042417E0,1.220660720E-1,2.780068038E0,2.777660154E0,3.931802939E0
1.674994417E0,2.477846072E-1,3.360308297E0,2.788081062E0,4.373381423E0
1.684947417E0,-6.938366027E-1,3.478460644E0,2.936799145E0,4.604985006E0
1.694899417E0,-2.310446281E0,1.992290799E0,2.677086875E0,4.058839586E0
1.704851417E0,-2.544888346E0,-2.130574526E0,2.967665427E0,4.452285097E0
1.714804417E0,-2.598255591E0,-5.373090663E0,1.957582312E0,6.281175359E0
1.724756417E0,-2.119050394E0,-6.038739447E0,-1.356604317E0,6.541951082E0
1.734708417E0,-3.717325324E-1,-4.763528956E0,-4.620100265E0,6.646406521E0
1.744660417E0,7.595978983E-1,-2.151128073E0,-6.249372527E0,6.652743640E0
1.754613417E0,2.358686687E0,-1.339825147E-1,-2.833456040E0,3.689149947E0
1.764565417E0,4.760286675E0,1.284295895E0,1.338798376E0,5.109024003E0
1.774517417E0,6.934850973E0,3.154310305E0,9.525640547E-1,7.677838876E0
1.784469417E0,6.329407461E0,2.330780851E0,-1.988117056E0,7.031823918E0
1.794422417E0,5.737017857E0,4.905229211E-1,-3.050176072E0,6.515946646E0
1.804374417E0,4.931129453E0,1.701207048E0,-1.801160522E0,5.518543497E0
1.814326417E0,3.622915522E0,1.349739686E0,-1.161774507E0,4.036958522E0
1.824278417E0,2.836510625E0,-9.209364653E-1,-4.069673789E-1,3.009906801E0
1.834231417E0,2.151305244E0,-3.434655644E0,1.146084089E0,4.211707775E0
1.844183417E0,1.124666688E0,-3.904100522E0,2.631061687E0,4.840388584E0
1.854135417E0,1.571007244E0,-9.282823223E-1,4.216492111E0,4.594407204E0
1.864087417E0,1.479661456E0,1.870210643E1,-3.502820145E0,1.908475653E1
1.874040417E0,6.300756104E0,1.692038497E1,-9.287477607E-1,1.807931214E1
1.883992417E0,4.664119858E0,3.346798305E0,-1.818191122E0,6.021701745E0
1.893944417E0,3.143339978E-1,-1.179433683E0,-8.996984425E0,9.079405179E0
1.903896417E0,-2.635227828E0,-5.716936764E0,-6.222461302E0,8.851373697E0
1.913849417E0,-4.778436725E0,2.103460402E0,-3.797547880E0,6.455956405E0
1.923801417E0,-8.880939706E-1,-7.487903434E-1,2.609593342E-1,1.190587104E0
1.933753417E0,-1.274454007E0,-5.421563496E0,3.168057693E0,6.407353065E0
1.943705417E0,-5.605191211E0,-5.142330882E0,2.804731008E0,8.107296185E0
1.953658417E0,-8.846157251E0,-2.614884195E0,1.415430815E0,9.332500300E0
1.963610417E0,-9.853303310E0,-1.791661720E0,1.713177907E0,1.016034529E1
1.973562417E0,-7.346140614E0,-5.096601562E0,3.022687141E0,9.438101873E0
1.983515417E0,-6.602696965E0,-4.187473549E0,2.046261623E0,8.081938416E0
1.993467417E0,-5.438720981E0,-3.544525411E0,2.869922200E0,7.097872902E0
2.003419417E0,-3.299015443E0,-2.264633639E0,5.564202229E0,6.853642452E0
2.013371417E0,-1.930567591E0,-3.572742319E-1,8.551938808E0,8.774416988E0
2.023324417E0,-1.053325248E0,8.529491347E-1,9.359342226E0,9.456971143E0
2.033276417E0,-1.000340192E-1,1.783879076E0,5.821722962E0,6.089719994E0
2.043228417E0,1.045145067E0,3.104778541E0,-7.550959808E-1,3.361866734E0
2.053180417E0,1.309382204E0,3.147036368E0,-4.100088081E0,5.331889152E0
2.063133417E0,9.875413679E-1,2.776659696E0,-5.599643372E0,6.327802376E0
2.073085417E0,1.766140524E0,2.520660993E0,-5.670698737E0,6.452116580E0
2.083037417E0,2.267619958E0,8.349753785E-1,-4.772606758E0,5.349491511E0
2.092989417E0,1.127056810E0,2.055787468E-1,-2.078379355E0,2.373221528E0
2.102942417E0,6.463689061E-1,1.563698078E0,-6.766519283E-1,1.822306855E0
2.112894417E0,1.241705945E0,3.974566487E0,6.785547584E-3,4.164019507E0
2.122846417E0,1.486229779E0,5.254346577E0,1.902652983E0,5.782484352E0
2.132798417E0,4.250371756E-1,5.991311511E0,1.237247443E0,6.132475150E0
2.142751417E0,1.454085588E0,6.500840222E0,1.440427224E0,6.815432421E0
2.152703417E0,3.299774412E0,8.302297198E0,2.302254040E0,9.225888770E0
2.162655417E0,2.633973600E0,7.309109028E0,2.048882052E0,8.034849680E0
2.172607417E0,5.467065359E0,-8.036029031E0,6.247508727E-1,9.739449670E0
2.182560417E0,6.475438163E0,-1.204378841E1,-3.423630134E0,1.409628965E1
2.192512417E0,3.596632873E0,-7.809611392E0,-4.088307695E0,9.520507231E0
2.202464417E0,3.338772124E0,-2.053580729E0,-7.187239605E-1,3.985116967E0
2.212417417E0,5.227559313E0,2.238659722E0,-1.197131889E0,5.811376642E0
2.222369417E0,5.579013811E0,2.902937919E0,-1.136352568E0,6.390910797E0
2.232321417E0,5.436368646E0,2.077947831E0,-1.608600455E0,6.038175773E0
2.242273417E0,4.057000241E0,2.753693587E-1,-5.390742238E0,6.752420389E0
2.252226417E0,9.539228746E-1,-1.412214847E0,-1.264798354E1,1.276228064E1
2.262178417E0,-3.219600022E0,-1.673441545E0,-1.376775340E1,1.423788133E1
2.272130417E0,-3.521802546E0,-2.443060840E0,-7.217766164E0,8.394509386E0
2.282082417E0,-1.826972325E0,-2.396705868E0,-5.795602280E-1,3.068862485E0
2.292035417E0,-1.631826326E-2,-1.299522629E0,3.965819052E0,4.173337526E0
2.301987417E0,1.341132877E0,7.422975951E-1,6.634319876E0,6.809100039E0
2.311939417E0,2.050170925E0,2.471865978E0,1.120478196E1,1.165591957E1
2.321891417E0,1.769277409E0,4.400850728E0,9.194648380E0,1.034598417E1
2.331844417E0,-2.378351312E-1,4.752896379E0,1.058348957E0,4.875109440E0
2.341796417E0,-3.973767757E-1,5.077737860E0,5.220095927E-1,5.119943759E0
2.351748417E0,2.641631699E-1,3.358828951E0,-1.666846470E0,3.758974762E0
2.361700417E0,-8.473605122E-1,-1.855847776E-2,-1.499738309E0,1.722666320E0
2.371653417E0,-2.025524765E0,-2.485229790E0,-1.118775253E0,3.395699596E0
2.381605417E0,-1.837996373E0,-5.969741718E0,-7.720143145E-1,6.293810685E0
2.391557417E0,-2.502687821E0,-9.173572091E0,1.119003294E0,9.574447223E0
2.401509417E0,-2.800888511E0,-1.143103997E1,3.412287705E0,1.225387117E1
2.411462417E0,-1.323374152E0,-7.529381828E0,7.642216718E0,1.080955069E1
2.421414417E0,2.219580111E0,-4.011432012E0,9.278960552E0,1.034974548E1
2.431366417E0,3.484873871E0,-2.903381723E0,8.324518372E0,9.480062101E0
2.441318417E0,3.013367849E0,-3.495452068E0,6.450413250E0,7.931355625E0
2.451271417E0,1.148613740E0,-4.303384075E0,3.944192541E0,5.949376675E0
2.461223417E0,1.529239851E0,-6.110474843E0,2.012116953E0,6.612495139E0
2.471175417E0,2.231667768E0,-7.823783289E0,-1.393449670E0,8.254309660E0
2.481128417E0,1.253104215E0,-6.111557747E0,-4.896033295E0,7.930482349E0
2.491080417E0,-1.401058286E-1,-1.770127010E0,-9.287057192E0,9.455284795E0
2.501032417E0,-2.124740905E0,1.787390680E1,-1.480124409E1,2.330381717E1
2.510984417E0,2.861539924E0,1.792748367E1,-8.539413487E0,2.006251889E1
2.520937417E0,3.926589206E0,1.246616437E0,2.359615518E0,4.747624745E0
2.530889417E0,-6.211457719E-1,2.694165423E0,2.464511350E0,3.703804205E0
2.540841417E0,-1.858168828E0,2.941896163E0,1.271834309E0,3.704741143E0
2.550793417E0,-2.753659673E0,-1.281581032E-1,-7.618468836E-2,2.757692912E0
2.560746417E0,-4.216979184E0,-3.858427336E0,-1.443977214E0,5.895374894E0
2.570698417E0,-6.358925959E0,-5.399836412E0,-9.047700834E-1,8.391232421E0
2.580650417E0,-6.149934193E0,-5.130249365E0,1.036147664E0,8.075565064E0
2.590602417E0,-4.574634947E0,-3.537291235E0,3.459709209E0,6.738642444E0
2.600555417E0,-2.316975574E0,-2.169293033E0,5.267638468E0,6.149977488E0
2.610507417E0,8.011331561E-1,4.979389447E-1,5.589232405E0,5.668269260E0
2.620459417E0,2.851647313E0,3.311525561E0,4.207196208E0,6.066184457E0
2.630409667E0,3.268193600E0,4.966352495E0,-1.081572928E0,6.042809488E0
2.640362667E0,3.596763266E0,5.558112938E0,-5.676027305E0,8.720470824E0
2.650314667E0,2.642434229E0,4.468779001E0,-8.532498570E0,9.987791361E0
2.660266667E0,1.277550547E0,5.271709884E0,-9.595132951E0,1.102223375E1
2.670218667E0,1.294379126E0,6.894803978E0,-4.003362270E0,8.077168358E0
2.680171667E0,4.176488970E0,-1.635210695E0,-2.187017991E-1,4.490523868E0
2.690123667E0,3.277323443E0,-1.599826269E0,-2.965580894E0,4.700527958E0
2.700075667E0,6.289950742E-1,8.825584992E0,2.658666100E-1,8.851964206E0
2.710027667E0,6.234260398E-1,9.226775322E0,4.482846817E0,1.027705982E1
2.719980667E0,1.280575019E0,-6.967559713E0,7.368061826E-2,7.084644632E0
2.729932667E0,1.441611869E0,-1.372273452E1,-4.465646063E0,1.450288531E1
2.739884667E0,5.130743162E-1,-3.669192726E0,-1.894516729E0,4.161179418E0
2.749836667E0,2.575900809E0,3.159724241E0,2.721041565E0,4.901345678E0
2.759789667E0,3.357189392E0,3.618545313E0,1.783971024E0,5.248537264E0
2.769741667E0,2.731287641E0,7.309852209E0,2.032841240E0,8.063889570E0
2.779693667E0,2.328994234E0,6.283304504E0,9.608764565E-1,6.769594759E0
2.789645667E0,-1.508078193E0,7.278132234E0,-1.009212611E0,7.500934524E0
2.799598667E0,-5.299667761E0,-1.150719177E0,-3.988699792E0,6.732039738E0
2.809550667E0,-4.979959550E0,-9.682044210E0,1.938977641E-1,1.088942485E1
2.819502667E0,-5.882165922E-1,-2.398800107E1,4.850152532E0,2.448048557E1
2.829454667E0,1.338673246E0,-2.878414930E1,5.943891177E0,2.942191597E1
2.839407667E0,5.700805758E-1,-1.518745502E1,6.396433509E0,1.648933424E1
2.849359667E0,6.542075372E-1,-1.488226896E0,3.358609096E0,3.731361930E0
2.859311667E0,2.184683490E0,-1.966956568E-1,-3.434431111E0,4.075150081E0
2.869263667E0,3.893579334E0,1.647747710E0,-7.886870652E0,8.948617839E0
2.879216667E0,3.082776345E0,6.670287269E-1,9.177228355E-1,3.284912863E0
2.889168667E0,2.424252832E0,5.986575267E0,-3.660777998E0,7.424108079E0
2.899120667E0,4.349176252E0,5.854025320E0,-9.486037356E-1,7.354236572E0
2.909073667E0,6.064287102E0,6.324691681E0,-2.990528625E0,9.258540078E0
2.919025667E0,3.972221754E0,6.320892161E0,2.037120817E0,7.738351542E0
2.928977667E0,1.601624580E0,3.284779812E0,1.955703017E0,4.144846680E0
2.938929667E0,-1.424537415E0,1.521778219E0,2.091275974E0,2.952719254E0
2.948882667E0,-1.759071825E0,-1.598301315E-1,1.586190562E0,2.374000812E0
2.958834667E0,-1.658153415E-1,-4.218263233E-1,8.857923603E-1,9.950177285E-1
2.968786667E0,1.316113080E0,1.533144037E0,7.081030780E-1,2.141049800E0
2.978738667E0,1.864041041E0,3.370584778E0,-7.524004143E-1,3.924486862E0
2.988691667E0,1.725092778E0,4.077856967E0,-2.079402618E0,4.891704997E0
2.998643667E0,9.620406371E-1,3.065886371E0,-1.220050782E0,3.437107117E0
3.008595667E0,-3.013423982E-1,9.381635320E-1,9.486481744E-1,1.367805327E0
3.018547667E0,-2.440976600E0,7.894542199E-1,1.012150691E0,2.757907494E0
3.028500667E0,-2.957217037E0,1.310500191E0,2.404164577E-1,3.243507890E0
3.038452667E0,-2.745835513E0,1.747814035E0,8.628794611E-1,3.367347254E0
3.048404667E0,-2.675734999E0,1.896555507E0,9.338588119E-1,3.410069333E0
3.058356667E0,-4.311540356E0,-6.738682151E-2,9.427001674E-2,4.313097270E0
3.068309667E0,-6.719723139E0,-4.931556299E0,2.108305990E0,8.597667169E0
3.078261667E0,-6.251275796E0,-9.987329679E0,2.280231671E0,1.200102744E1
3.088213667E0,-7.691198843E0,-1.119715953E1,2.104049217E0,1.374619745E1
3.098165667E0,-2.961221795E0,-1.152388440E1,1.573750026E0,1.200189299E1
3.108118667E0,-7.022141279E-1,-9.889218078E0,1.951537460E0,1.010436724E1
3.118070667E0,5.607009841E-1,-6.005512059E0,-5.441711247E-1,6.056127715E0
3.128022667E0,2.606588166E0,-1.826356759E0,-1.017789818E0,3.341523154E0
3.137974667E0,1.653511164E0,-1.611883813E0,-1.306631674E0,2.653215959E0
3.147927667E0,6.385815842E-1,1.478462631E-1,-4.138076856E0,4.189668844E0
3.157879667E0,4.413511265E-1,4.495181519E-1,-4.816417022E0,4.857440716E0
3.167831667E0,9.054287723E-1,1.750973870E0,-3.098551841E0,3.672428933E0
3.177783667E0,4.362903248E-1,5.177550416E0,-1.874683996E0,5.523750324E0
3.187736667E0,9.115194514E-1,9.159043515E0,2.677553483E0,9.585835304E0
3.197688667E0,8.214592472E-2,1.016035230E1,7.104389237E0,1.239805845E1
3.207640667E0,-1.906642392E0,6.746516835E0,8.220362504E0,1.080394068E1
3.217592667E0,-1.606696748E0,4.550983837E0,7.011498030E0,8.511993477E0
3.227545667E0,8.204606889E-1,5.731678764E0,1.595822096E0,6.005992454E0
3.237497667E0,2.778922568E0,5.922026684E0,-2.892369077E0,7.152524698E0
3.247449667E0,4.269231657E0,3.537302345E0,-2.238663815E0,5.979169048E0
3.257401667E0,4.362995561E0,8.760766268E-1,-1.644487302E0,4.744215321E0
3.267354667E0,5.378856018E0,-6.652938581E-1,-6.078145587E-1,5.453819443E0
3.277306667E0,5.302872620E0,-3.786253399E-1,1.222775584E0,5.455180593E0
3.287258667E0,4.144931547E0,2.790460879E-1,1.250699548E0,4.338499004E0
3.297210667E0,4.186310830E0,1.327715564E0,6.350041115E-1,4.437483207E0
3.307163667E0,4.696524835E0,3.192901343E0,-1.512463824E-1,5.681094963E0
3.317115667E0,8.342427224E-1,3.296909276E0,-6.000845397E-1,3.453356795E0
3.327067667E0,9.059550217E-1,1.916353594E0,-1.051369135E0,2.366123973E0
3.337019667E0,7.287579288E-1,-5.719313657E-1,-9.911218373E-1,1.356656221E0
3.346972667E0,-3.691444890E0,-3.834132155E0,-9.450152993E-1,5.405588652E0
3.356924667E0,-5.349390144E0,-5.718033117E0,-5.980345058E-1,7.852994519E0
3.366876667E0,-5.932704869E0,-4.712623681E0,2.078415023E0,7.856565282E0
3.376828667E0,-5.097380996E0,1.699768049E-1,2.767133996E0,5.802518047E0
3.386781667E0,-1.541504386E-1,4.684046584E-1,2.671976409E0,2.717098307E0
3.396733667E0,-3.015444195E-1,-4.497853696E-2,6.728047527E-2,3.122158998E-1
3.406685667E0,1.935282201E-3,3.226218778E-1,-2.583486255E-1,4.133190458E-1
3.416637667E0,1.086894625E0,2.718627834E-1,-9.198535609E-1,1.449613698E0
3.426590667E0,1.377558838E0,-9.624049187E-2,-1.419508663E0,1.980387697E0
3.436542667E0,2.050914837E0,5.974509537E-2,-1.522810253E0,2.555146221E0
3.446494667E0,2.353392326E0,-6.342591763E-2,-1.967060648E0,3.067866666E0
3.456446667E0,2.356133062E0,-3.257834673E-2,-1.774004298E0,2.949494127E0
3.466399667E0,2.319520575E0,1.859128064E-1,-9.796681651E-1,2.524775036E0
3.476351667E0,2.098929687E0,3.832493180E-1,-1.764958656E-1,2.140919583E0
3.486303667E0,1.703285733E0,4.172122854E-1,7.075668152E-1,1.891004807E0
3.496255667E0,1.429636479E0,3.018297637E-1,1.167718129E0,1.870435056E0
3.506208667E0,8.276052555E-1,1.363781190E-1,1.322195792E0,1.565800486E0
3.516160667E0,-1.158093685E-1,4.098898172E-3,1.268965080E0,1.274245261E0
3.526112667E0,-1.085902791E0,-2.195062298E-1,1.094045697E0,1.557017612E0
3.536065667E0,-2.006646298E0,-5.065729433E-1,8.220647264E-1,2.226889294E0
3.546017667E0,-2.755922253E0,-7.084854859E-1,4.781899738E-1,2.885433208E0
3.555969667E0,-3.235293072E0,-9.438365006E-1,1.360179305E-1,3.372899269E0
3.565921667E0,-3.183180347E0,-1.069698987E0,-5.800017659E-1,3.407828501E0
3.575874667E0,-3.400749979E0,-3.525169373E-1,-1.581437945E0,3.767003396E0
3.585826667E0,-1.930674741E0,-1.162040555E-1,2.259603864E0,2.974360092E0
3.595778667E0,-1.821067075E-1,-4.159984034E-1,9.360573649E-2,4.636588816E-1
3.605730667E0,1.036816877E0,-1.632343805E-1,3.574776419E-1,1.108794374E0
3.615683667E0,1.665277224E0,1.016187608E-2,8.284276664E-1,1.859984918E0
3.625635667E0,1.835262215E0,3.394454867E-1,8.846673560E-1,2.065441107E0
3.635588417E0,1.546269721E0,6.104417127E-1,5.756865207E-1,1.759262375E0
3.645540417E0,2.066119498E-1,1.004746946E0,1.746586704E-1,1.040533793E0
3.655493417E0,-2.875312749E-1,3.070934272E-1,-1.837627121E-1,4.590744399E-1
3.665445417E0,-5.291766711E-1,-3.288152486E-1,-1.213208297E0,1.363826158E0
3.675397417E0,-1.173540567E-1,-8.174775857E-1,-1.574940519E0,1.778336081E0
3.685349417E0,2.189191693E-1,-4.300211960E-1,-1.330369030E0,1.415176875E0
3.695302417E0,1.342071940E-1,-6.991457283E-2,-7.651245403E-1,7.799456267E-1
3.705254417E0,9.200973898E-2,8.799416363E-2,-3.542711750E-1,3.764529590E-1
3.715206417E0,2.354868163E-1,1.026022625E-1,2.561700992E-1,3.627731862E-1
3.725158417E0,7.245773157E-1,-3.380515105E-1,4.097471452E-1,8.984341006E-1
3.735111417E0,1.344295928E0,-1.060660946E0,4.068843484E-1,1.760025016E0
3.745063417E0,1.416393705E0,-1.291979721E0,1.474865862E-1,1.922793546E0
3.755015417E0,9.190552698E-1,-1.010926868E0,-2.358393303E-1,1.386454439E0
3.764967417E0,5.997369227E-1,-7.836929584E-1,-6.369524769E-1,1.174549908E0
3.774920417E0,5.415331534E-1,-5.087820214E-1,-9.583737751E-1,1.212681984E0
3.784872417E0,3.648506154E-1,-2.914217198E-1,-8.751328131E-1,9.919173508E-1
3.794824417E0,1.726146300E-1,-4.009780759E-1,-8.241030657E-1,9.325905268E-1
3.804776417E0,-1.218630786E0,3.802689922E-1,-4.077030317E-1,1.340107182E0
3.814729417E0,-2.922392190E0,-7.540259403E-1,-4.705418158E-1,3.054560661E0
3.824681417E0,-6.070348325E-1,-2.224003091E0,-2.292726002E0,3.251349498E0
3.834633417E0,6.267456503E-1,-8.524743408E-1,-6.089126658E-1,1.220777312E0
3.844585417E0,9.742801751E-1,2.157780451E-1,-1.162297468E-1,1.004634948E0
3.854538417E0,1.403938405E0,2.948148590E-1,3.891041350E-1,1.486391898E0
3.864490417E0,1.569213903E0,1.874874616E-1,7.715705109E-1,1.758665651E0
3.874442417E0,1.108488539E0,4.164819682E-1,2.449222855E-1,1.209210898E0
3.884394417E0,2.310243675E-1,5.526911026E-1,-3.279995986E-1,6.829520115E-1
3.894347417E0,-2.339374503E-1,3.032950759E-3,-1.342658708E0,1.362889701E0
3.904299417E0,-3.817066763E-1,-2.834712607E-1,-1.770135781E0,1.832876598E0
3.914251417E0,-4.305803360E-1,-5.392249650E-1,-1.958570491E0,2.076574429E0
3.924203417E0,-3.493035999E-1,-1.185417724E-1,-2.070673310E0,2.103272001E0
3.934156417E0,5.924384281E-2,-1.124203223E-1,-1.355875754E0,1.361817617E0
3.944108417E0,1.342681805E0,-7.088088369E-1,-4.780005240E-1,1.591756544E0
3.954060417E0,1.761654687E0,5.009765732E-1,-1.380855060E-1,1.836701491E0
3.964012417E0,2.277968360E0,8.854333413E-1,3.407441533E-1,2.467638270E0
3.973965417E0,2.121541454E0,-1.095224422E-1,4.347837166E-1,2.168402681E0
3.983917417E0,1.855603070E0,-1.661374646E0,8.720022869E-1,2.638904404E0
3.993869417E0,2.622695491E0,-3.731895343E0,1.987026551E0,4.975324010E0
4.003821417E0,2.014030308E0,-1.970694108E0,2.335655674E0,3.659950926E0
4.013774417E0,1.934475577E0,-7.215943587E-1,1.949776863E0,2.839810556E0
4.023726417E0,2.190427794E0,-3.323130530E-1,9.692274499E-1,2.418224088E0
4.033678417E0,2.966431080E0,-1.025668868E0,1.033657334E0,3.304566153E0
4.043630417E0,3.426390312E0,-1.213452784E0,1.630364522E0,3.983805556E0
4.053583417E0,3.204364517E0,-6.699330389E-1,2.174766612E0,3.930187279E0
4.063535417E0,1.965795311E0,-1.060006642E-1,2.580078059E0,3.245364407E0
4.073487417E0,5.854526134E-1,1.545290458E-1,1.867286684E0,1.963006253E0
4.083439417E0,-4.631877726E-1,5.630903757E-1,1.249103258E0,1.446330748E0
4.093392417E0,-1.415469992E0,1.324539356E0,1.022162878E0,2.191523842E0
4.103344417E0,-1.659574288E0,1.122680023E0,9.375899202E-1,2.212164576E0
4.113296417E0,-1.081743667E0,7.047268957E-1,6.031560820E-1,1.424993550E0
4.123248417E0,-1.083689474E0,8.358594775E-1,5.708618734E-1,1.482878019E0
4.133201417E0,-1.233436228E0,3.198567295E-1,6.375552517E-1,1.424833308E0
4.143153417E0,-1.341871819E0,5.773774624E-2,1.106318929E0,1.740084825E0
4.153105417E0,-1.500959500E0,-5.975146884E-1,1.700266816E0,2.345380666E0
4.163057417E0,-1.780110838E0,-2.369350255E-2,1.545614394E0,2.357600440E0
4.173010417E0,-1.344093761E0,8.148176873E-1,9.422472274E-1,1.832578986E0
4.182962417E0,-9.017950201E-1,1.197705647E0,5.048994702E-1,1.581978682E0
4.192914417E0,-1.446138638E0,1.817738548E0,3.183434701E-1,2.344532566E0
4.202866417E0,-1.445984564E0,1.000943332E0,5.237801296E-1,1.834967176E0
4.212819417E0,-2.764551574E0,1.465049118E0,3.857414013E-1,3.152445202E0
4.222771417E0,-2.287895909E0,-1.036148248E0,8.596640772E-1,2.654636173E0
4.232723417E0,-1.496769093E0,-1.403362747E0,9.793612593E-1,2.273520001E0
4.242675417E0,-8.379456179E-1,-6.802451885E-1,1.237972498E0,1.642395288E0
4.252628417E0,-9.294631675E-1,2.062827516E-1,1.355018553E0,1.656058462E0
4.262580417E0,-4.015520386E0,1.024647360E0,1.053093479E0,4.275898976E0
4.272532417E0,-2.722196682E0,2.417209715E0,9.866977608E-1,3.771847035E0
4.282484417E0,-1.731045390E0,2.251878523E0,8.700820613E-1,2.970608997E0
4.292437417E0,-3.430662288E-1,2.417233688E0,1.386677717E0,2.807772824E0
4.302389417E0,2.526181349E-1,5.936558184E0,-6.958198321E-1,5.982533262E0
4.312341417E0,5.981456029E-1,1.574541155E0,3.836229551E-1,1.727461890E0
4.322293417E0,5.937340249E-1,-3.669909595E0,2.451290796E0,4.453042004E0
4.332246417E0,1.432871744E0,-3.696546586E0,2.003561307E0,4.442053130E0
4.342198417E0,2.255228246E0,-1.820644029E0,2.166592205E0,3.618690496E0
4.352150417E0,1.640729735E0,-7.442581666E-1,1.272982117E0,2.205991331E0
4.362102417E0,9.798242126E-1,-2.599537593E-1,1.269002502E0,1.624191736E0
4.372055417E0,7.145205434E-1,-9.748594880E-2,1.057210504E0,1.279741054E0
4.382007417E0,3.058511862E-1,-4.437586445E-1,7.267773306E-1,9.048049353E-1
4.391959417E0,-4.068668067E-2,-4.825034648E-1,7.934695029E-1,9.295476597E-1
4.401911417E0,-1.198468709E-1,-4.540924287E-1,8.711111712E-1,9.896453299E-1
4.411864417E0,-1.066925360E-1,-6.124730355E-1,7.738848388E-1,9.926753045E-1
4.421816417E0,-2.019581509E-1,-5.702842051E-1,9.526997101E-1,1.128560103E0
4.431768417E0,-1.275021918E-1,-2.806008625E-1,1.119661106E0,1.161307300E0
4.441720417E0,2.736467689E-2,7.759606004E-2,9.689456141E-1,9.724328137E-1
4.451673417E0,1.621770577E-1,4.674772900E-1,9.113259816E-1,1.036991543E0
4.461625417E0,1.792652531E-1,6.885646069E-1,1.006881180E0,1.232909956E0
4.471577417E0,1.001620732E-1,6.103738850E-1,8.761678433E-1,1.072501194E0
4.481529417E0,-2.173585474E-2,2.905253416E-1,6.899644303E-1,7.489514915E-1
4.491482417E0,-1.892708623E-1,-2.803067476E-1,7.697122657E-1,8.407450886E-1
4.501434417E0,-3.897259864E-1,-8.103445673E-1,1.163191288E0,1.470224008E0
4.511386417E0,-4.864653920E-1,-1.052253234E0,1.646026289E0,2.013277922E0
4.521338417E0,-5.372671710E-1,-9.150670302E-1,1.977852269E0,2.244527407E0
4.531291417E0,-4.882885538E-1,-3.981766748E-1,1.945607214E0,2.045081369E0
4.541243417E0,-4.083921991E-1,2.211528057E-1,1.085136806E0,1.180345136E0
4.551195417E0,-2.980182561E-1,6.622410268E-1,1.369897377E-1,7.390157284E-1
4.561147417E0,-1.022561073E-1,9.531394207E-1,1.206139890E-1,9.661670669E-1
4.571100417E0,7.472712368E-2,9.802634847E-1,2.280776815E-1,1.009217554E0
4.581052417E0,1.366602471E-1,5.548259211E-1,2.417695399E-1,6.204517195E-1
4.591004417E0,2.007387140E-1,-1.755632347E-1,3.662567246E-1,4.530590127E-1
4.600956417E0,2.385509035E-1,-8.648663449E-1,5.340425412E-1,1.044079386E0
4.610909417E0,1.705200112E-1,-1.334761459E0,7.622114575E-1,1.546490068E0
4.620861417E0,9.908720881E-2,-1.502029248E0,7.475653517E-1,1.680703452E0
4.630812542E0,-2.502520591E-2,-1.348598310E0,4.212486184E-1,1.413079637E0
4.640764542E0,-2.776526964E-1,-9.660044646E-1,5.332309842E-1,1.137800918E0
4.650717542E0,-4.613260192E-1,-5.282544190E-1,8.807321799E-1,1.125861270E0
4.660669542E0,-3.027451453E-1,1.515212381E-1,1.330485975E0,1.372882456E0
4.670621542E0,-2.624616301E-1,9.599999589E-1,1.667103163E0,1.941576417E0
4.680573542E0,-1.360261166E-1,1.429318537E0,9.476652575E-1,1.720326720E0
4.690526542E0,1.235224307E-2,1.528359845E0,1.555616641E-1,1.536305902E0
4.700478542E0,2.267813355E-2,1.088053982E0,1.334346306E-1,1.096439951E0
4.710430542E0,1.540621457E-1,4.303410387E-1,3.717735726E-1,5.891893953E-1
4.720382542E0,3.042891026E-1,-7.386729062E-2,5.818833268E-1,6.607847157E-1
4.730335542E0,2.738008431E-1,-4.341709650E-1,5.938321120E-1,7.849254141E-1
4.740287542E0,4.197941235E-1,-3.958711177E-1,1.780091067E-1,6.038445909E-1
4.750239542E0,7.706905049E-1,-1.318137825E-2,-7.045380306E-1,1.044275557E0
4.760191542E0,1.226583876E0,4.364782763E-1,-1.248105138E0,1.803548648E0
4.770144542E0,1.737263904E0,7.127697408E-1,-1.195728119E0,2.226183350E0
4.780096542E0,2.052775421E0,7.204132211E-1,-9.719294482E-1,2.382756595E0
4.790048542E0,2.043703027E0,5.333315563E-1,-9.323315191E-1,2.308767350E0
4.800000542E0,1.984379224E0,1.442560726E-1,-1.290957627E0,2.371738247E0
4.809952542E0,1.947542058E0,-2.761113703E-1,-1.990403903E0,2.798368319E0
4.819905542E0,1.568745541E0,-4.431107730E-1,-2.007533906E0,2.586020516E0
4.829857542E0,1.206041584E0,-2.430453658E-1,-1.955956201E0,2.310708119E0
4.839809542E0,1.053325321E0,2.923806632E-1,-2.314306905E0,2.559491578E0
4.849761542E0,1.101180835E0,8.864612818E-1,-2.427209038E0,2.808871045E0
4.859714542E0,1.357007629E0,1.232076166E0,-3.078014081E0,3.582408696E0
4.869666542E0,1.338780835E0,1.052113486E0,-3.287726809E0,3.702488957E0
4.879618542E0,9.868604596E-1,2.978536570E-1,-2.627679657E0,2.822642512E0
4.889570542E0,6.528527373E-1,-5.143719596E-1,-2.398376418E0,2.538307438E0
4.899523542E0,4.061992009E-1,-1.295198028E0,-2.411832615E0,2.767575164E0
4.909475542E0,3.775854126E-2,-1.554450122E0,-2.515773305E0,2.957508447E0
4.919427542E0,-2.201758821E-1,-1.314973311E0,-2.643559526E0,2.960749769E0
4.929379542E0,9.257443383E-2,-1.232014770E0,-2.661916859E0,2.934660421E0
4.939332542E0,3.166080165E-1,-1.137682809E0,-2.561166995E0,2.820308349E0
4.949284542E0,4.228025890E-1,-1.323519017E0,-2.530529923E0,2.886874835E0
4.959236542E0,5.294056626E-1,-1.755853956E0,-2.477139582E0,3.082128158E0
4.969188542E0,4.858124042E-1,-2.105989323E0,-2.393445022E0,3.224869578E0
4.979141542E0,3.654941015E-1,-2.186230663E0,-2.447865205E0,3.302307452E0
4.989093542E0,1.648650227E-1,-1.945174520E0,-2.479059223E0,3.155411070E0
4.999045542E0,-9.879967198E-3,-1.385444539E0,-2.706690159E0,3.040678510E0
5.008997542E0,5.787376709E-2,-7.514660293E-1,-3.057361422E0,3.148890191E0
5.018950542E0,-2.452523974E-1,-3.208653742E-1,-3.021242587E0,3.048115827E0
5.028902542E0,-9.099226499E-1,-2.144074577E-1,-2.248674833E0,2.435255283E0
5.038854542E0,-1.131242832E0,-2.032439536E-1,-1.797182661E0,2.133280096E0
5.048806542E0,-7.608455479E-1,-2.255317855E-1,-1.862394026E0,2.024416470E0
5.058759542E0,-4.338157832E-1,-2.293529409E-1,-1.602438513E0,1.675890239E0
5.068711542E0,-5.374791326E-1,8.309478164E-2,-1.467532723E0,1.565068961E0
5.078663542E0,-8.599306371E-1,4.553700453E-1,-2.006684013E0,2.230162170E0
5.088615542E0,-1.013477716E0,7.093783557E-1,-2.669979585E0,2.942642642E0
5.098568542E0,-1.214485914E0,1.113043812E0,-2.212006359E0,2.758045448E0
5.108520542E0,-1.651246099E0,1.450680170E0,-1.207316716E0,2.507728113E0
5.118472542E0,-2.100381258E0,1.658255741E0,-6.610581350E-1,2.756521611E0
5.128424542E0,-1.846168149E0,1.992691333E0,-1.292660336E0,3.008342788E0
5.138377542E0,-1.248907961E0,2.066469162E0,-2.936671383E0,3.801855429E0
5.148329542E0,-5.502077536E-1,1.635452185E0,-4.038199981E0,4.391411106E0
5.158281542E0,-2.400391661E-1,7.147390831E-1,-3.341441086E0,3.425448772E0
5.168233542E0,-3.827166367E-1,1.990409750E-1,-1.482657715E0,1.544138347E0
5.178186542E0,-4.039315410E-1,5.506200188E-1,-4.851130772E-1,8.376620993E-1
5.188138542E0,-4.509576633E-1,1.048879976E0,-9.383480117E-1,1.477839304E0
5.198090542E0,-5.400375452E-1,1.691707662E0,-1.071536767E0,2.074055546E0
5.208042542E0,-4.686264141E-1,2.020383162E0,-1.310795476E0,2.453516582E0
5.217995542E0,-1.962365773E-1,2.194236086E0,-1.489661218E0,2.659374238E0
5.227947542E0,4.733124458E-1,2.640035409E0,-1.271321508E0,2.968176209E0
5.237899542E0,1.265988116E0,3.097305214E0,-1.659030497E-1,3.350156612E0
5.247851542E0,1.774513883E0,3.548310898E0,-2.350989997E-2,3.967362155E0
5.257804542E0,1.801429786E0,3.711573930E0,-7.783339852E-1,4.198420430E0
5.267756542E0,1.336801260E0,3.335110306E0,-1.214974814E0,3.792909458E0
5.277708542E0,7.663906087E-1,2.942358093E0,-2.008234402E0,3.643875838E0
5.287660542E0,6.416079569E-1,2.422420753E0,-2.654282734E0,3.650342437E0
5.297613542E0,7.302891684E-1,2.099619951E0,-2.480951967E0,3.331193310E0
5.307565542E0,1.053642387E0,1.738776578E0,-2.426274068E0,3.165487660E0
5.317517542E0,1.115467483E0,1.430535927E0,-2.029188484E0,2.721820466E0
5.327469542E0,9.920586343E-1,5.617794299E-1,-2.631348785E0,2.867712135E0
5.337422542E0,5.238251531E-1,-2.827163851E-1,-2.574604481E0,2.642519551E0
5.347374542E0,4.008856533E-2,-4.580773062E-1,-1.742038740E0,1.801704993E0
5.357326542E0,-4.328731754E-1,-9.193869531E-1,-9.634989327E-1,1.400350581E0
5.367278542E0,-1.314853590E0,-9.698525172E-1,-5.302722931E-2,1.634706626E0
5.377230542E0,-2.349840435E0,-7.637095141E-1,-4.990154171E-1,2.520717889E0
5.387183542E0,-2.799498627E0,7.359130204E-2,-1.878232087E0,3.371997037E0
5.397135542E0,-2.170118660E0,1.175326599E0,-2.442114176E0,3.471992117E0
5.407087542E0,-2.270242434E0,2.119560125E0,-3.148683529E0,4.422752966E0
5.417039542E0,-2.614993831E0,2.701104898E0,-2.807356408E0,4.692058227E0
5.426992542E0,-2.443833842E0,2.564810979E0,-1.386349103E0,3.804279569E0
5.436944542E0,-1.860722746E0,1.725024512E0,-4.481844020E-1,2.576600078E0
5.446896542E0,-1.055060848E0,6.812140721E-1,-6.837769067E-1,1.429949951E0
5.456848542E0,-7.615507221E-1,-7.007712543E-2,-9.710014951E-1,1.236007366E0
5.466801542E0,-7.376213575E-1,-1.092414250E0,-1.020594655E0,1.667053572E0
5.476753542E0,-3.397627712E-1,-1.716074179E0,-9.597754258E-1,1.995374199E0
5.486705542E0,4.029142717E-1,-1.808140343E0,-1.431027094E0,2.340843855E0
5.496657542E0,1.136595958E0,-1.977003838E0,-1.566000127E0,2.766360596E0
5.506610542E0,1.643032661E0,-2.181072249E0,-1.643789145E0,3.187267676E0
5.516562542E0,1.855745742E0,-2.382941523E0,-1.439904336E0,3.345971766E0
5.526514542E0,1.427684240E0,-2.277319173E0,-4.647355306E-1,2.727717731E0
5.536466542E0,2.405063586E-1,-2.124520903E0,1.144499493E0,2.425141535E0
5.546419542E0,-9.958501882E-1,-1.914802912E0,1.729058506E0,2.765471227E0
5.556371542E0,-1.687472085E0,-1.642195778E0,1.727727095E0,2.920515353E0
5.566323542E0,-1.962247805E0,-1.753492851E0,1.457010366E0,3.007994819E0
5.576275542E0,-2.052777468E0,-1.438537257E0,1.024283663E0,2.707848185E0
5.586228542E0,-2.048172785E0,-1.482097260E0,4.527405524E-1,2.568384327E0
5.596180542E0,-2.980634259E0,-1.677442210E0,-2.192705870E-3,3.420233583E0
5.606132542E0,-1.721842019E0,-1.786837767E0,-2.417320812E-1,2.493183415E0
5.616084542E0,-1.316150356E0,-1.686593687E0,-3.143100607E-1,2.162323019E0
5.626037542E0,-1.197536663E0,-1.050415455E0,-2.372121835E-1,1.610508089E0
5.635988792E0,-1.059077154E0,6.198335105E-1,-2.984676147E-1,1.262901784E0
5.645940792E0,1.886436936E-2,1.695103725E0,-7.051917493E-1,1.836035921E0
5.655892792E0,1.738885190E0,4.250042850E-1,-5.224025255E-1,1.864739860E0
5.665845792E0,1.565339684E0,-6.279319042E-1,6.659733045E-1,1.813313884E0
5.675797792E0,-2.780047280E0,6.321930626E0,-1.429168264E0,7.052516689E0
5.685749792E0,-2.098305789E0,5.527176490E0,1.004678534E1,1.165720647E1
5.695701792E0,1.523940374E0,-6.303361039E0,8.266868919E0,1.050694420E1
5.705654792E0,-1.524514570E-1,-9.463876408E-1,4.506252637E0,4.607081923E0
5.715606792E0,1.117863599E0,1.213673224E0,2.098714802E0,2.669686412E0
5.725558792E0,1.421251718E0,2.129830175E0,9.310445470E-1,2.724514080E0
5.735510792E0,4.927501986E-1,3.203766639E0,1.553599352E0,3.594522831E0
5.745463792E0,-7.226168905E-1,3.329776475E0,2.144066391E0,4.025743066E0
5.755415792E0,-1.439794701E0,2.719147652E0,2.015048162E0,3.677933092E0
5.765367792E0,-1.636216416E0,1.252083583E0,7.643187940E-1,2.197521485E0
5.775319792E0,-1.929138239E0,1.882887055E0,4.462571597E-1,2.732395187E0
5.785271792E0,-2.055762763E0,3.816929061E0,1.150609249E-1,4.336859119E0
5.795224792E0,-1.034608896E0,3.594167102E0,-4.365203762E-1,3.765501662E0
5.805176792E0,1.570704285E-1,3.435947878E0,-6.265385127E-1,3.496134930E0
5.815128792E0,1.025899541E0,2.833063692E0,-8.233592999E-1,3.123562115E0
5.825080792E0,1.496698050E0,1.642589296E0,-1.160218563E0,2.506852960E0
5.835033792E0,1.277369283E0,4.810299665E-1,-6.518926245E-1,1.512622262E0
5.844985792E0,4.639885488E-1,-1.043773018E0,3.656047601E-1,1.199339121E0
5.854937792E0,-4.939013327E-1,-2.222412064E0,1.202486331E0,2.574689745E0
5.864889792E0,-1.017908590E0,-2.661413999E0,1.685427167E0,3.310578062E0
5.874842792E0,-9.123814771E-1,-2.449566452E0,1.820770329E0,3.185595761E0
5.884794792E0,-4.533249816E-1,-1.277238305E0,1.632392921E0,2.121685150E0
5.894746792E0,-2.560564439E-1,-5.994284821E-1,1.358794684E0,1.507050896E0
5.904698792E0,9.969830132E-1,-1.542738149E0,8.328142476E-1,2.016828127E0
5.914651792E0,1.755068383E0,-4.893599099E-1,1.432876568E0,2.317945946E0
5.924603792E0,1.504718675E0,4.509244072E-1,1.674070120E0,2.295652822E0
5.934555792E0,7.191622093E-1,6.010592705E-1,1.104610373E0,1.448665112E0
5.944507792E0,4.754444137E-2,1.015014657E0,8.723928809E-1,1.339247761E0
5.954460792E0,-2.211318288E-1,1.227035281E0,-1.176506567E-1,1.252340426E0
5.964412792E0,-1.867798023E-1,1.389054610E0,-4.639496648E-1,1.476349788E0
5.974364792E0,3.898689508E-2,1.814596254E0,-3.568503088E-1,1.849762603E0
5.984316792E0,3.098897119E-1,2.136564998E0,-1.815355808E-1,2.166540282E0
5.994269792E0,5.159322891E-1,1.665957693E0,1.594757903E-1,1.751294861E0
6.004221792E0,4.469287855E-1,1.419603973E0,1.172928071E-1,1.492909368E0
6.014173792E0,3.005047846E-1,8.404559737E-1,3.300425792E-1,9.516288528E-1
6.024125792E0,2.876974089E-1,3.296940851E-1,3.349992639E-1,5.510830206E-1
6.034077792E0,3.955095040E-1,-1.015754914E-1,2.463928968E-1,4.769222240E-1
6.044030792E0,3.960430624E-1,-3.387058139E-1,5.390127110E-1,7.497375796E-1
6.053982792E0,6.644512743E-1,-3.961956382E-1,8.532917815E-1,1.151769658E0
6.063934792E0,9.154910995E-1,-2.807131290E-2,1.141396961E0,1.463454466E0
6.073886792E0,9.821483347E-1,3.787493008E-1,-1.890381432E-1,1.069486701E0
6.083839792E0,2.356993992E-1,3.519117504E-1,-1.478693596E0,1.538158261E0
6.093791792E0,-1.344753254E-1,2.651338077E-1,-2.645648151E0,2.662298572E0
6.103743792E0,-2.731712441E-1,4.198932338E-1,-2.003403432E0,2.065080669E0
6.113695792E0,-7.784917139E-2,4.736238831E-1,-7.970345503E-1,9.303999949E-1
6.123648792E0,4.653861064E-1,4.346024895E-1,-2.735327482E-3,6.367660747E-1
6.133600792E0,7.585511736E-1,1.036499666E0,9.813194919E-1,1.616390852E0
6.143552792E0,8.915506983E-1,1.468358057E0,1.331799259E0,2.173620781E0
6.153504792E0,8.770300884E-1,1.215366578E0,1.113616254E0,1.867200808E0
6.163457792E0,5.913479224E-1,4.323811322E-1,1.135152719E0,1.351006108E0
6.173409792E0,-3.691060728E-1,-3.363295054E-1,1.890896571E0,1.955721522E0
6.183361792E0,-1.044243134E0,-2.785484898E-1,2.016131067E0,2.287535237E0
6.193313792E0,-1.136941748E0,2.725960243E-1,1.101026030E0,1.605989865E0
6.203266792E0,-8.672414839E-2,1.079639838E0,-7.883099198E-2,1.085982313E0
6.213218792E0,8.372856865E-1,1.049367633E0,-2.733912456E-1,1.370022819E0
6.223170792E0,1.262490896E0,6.154861057E-1,1.310384417E-1,1.410630172E0
6.233122792E0,8.075612196E-1,2.865860724E-1,5.358604771E-1,1.010659760E0
6.243074792E0,-3.961378969E-2,1.868705803E-1,5.976316327E-1,6.274180700E-1
6.253027792E0,-6.488689562E-1,3.657217044E-1,2.571166903E-1,7.879671819E-1
6.262979792E0,-9.898591311E-1,7.881929755E-1,3.342268467E-1,1.308731008E0
6.272931792E0,-8.442754481E-1,1.282766848E0,4.178923166E-1,1.591516825E0
6.282883792E0,-6.049595826E-1,1.595682347E0,9.717838526E-2,1.709275253E0
6.292836792E0,7.111822218E-3,1.321459043E0,-4.149406421E-1,1.385092169E0
6.302788792E0,9.317328373E-1,7.460737270E-1,-1.009778475E0,1.563459195E0
6.312740792E0,1.528040441E0,3.362593389E-1,-8.791774052E-1,1.794695195E0
6.322692792E0,1.862681271E0,1.433409834E-1,-2.678048158E-1,1.887285769E0
6.332645792E0,1.990732516E0,-6.292481124E-2,-1.670800942E-1,1.998722402E0
6.342597792E0,1.714296333E0,-1.205678326E-1,-2.353510147E-1,1.734571595E0
6.352549792E0,6.277971990E-1,2.282220894E-1,-1.308296961E0,1.468964119E0
6.362501792E0,-6.551118822E-1,8.860350198E-1,-1.617300088E0,1.957010273E0
6.372454792E0,-1.476379706E0,1.235361716E0,-1.089994673E0,2.212216986E0
6.382406792E0,-1.598629344E0,8.377440351E-1,-6.383183134E-1,1.914387922E0
6.392358792E0,-8.806609169E-1,-1.464160341E-1,-3.312313181E-1,9.522160951E-1
6.402310792E0,-2.815454071E-1,-4.485048294E-2,1.707574081E-1,3.323213423E-1
6.412263792E0,-5.082045358E-2,4.934020901E-1,7.649760211E-1,9.117108389E-1
6.422215792E0,1.544422512E-1,9.876602125E-1,9.884402311E-1,1.405823316E0
6.432167792E0,-1.896129975E-1,1.326982908E0,8.213724160E-1,1.572097125E0
6.442119792E0,-6.921683921E-1,1.427356212E0,9.160505319E-1,1.831827343E0
6.452072792E0,-1.076711260E0,1.460002386E0,2.765838253E-1,1.835051149E0
6.462024792E0,-1.179754549E0,1.623629699E0,-3.007562149E-1,2.029396092E0
6.471976792E0,-9.748011620E-1,1.772943029E0,-8.450325894E-1,2.192634116E0
6.481928792E0,-4.442419899E-1,1.361860380E0,-1.035776365E0,1.767723768E0
6.491880792E0,-3.206830873E-1,9.947189713E-1,-1.898776279E0,2.167407399E0
6.501833792E0,-5.892052102E-1,8.325540465E-1,-1.748590545E0,2.024321594E0
6.511785792E0,-5.266207069E-1,4.827636659E-1,-1.575794213E0,1.730178467E0
6.521737792E0,-3.941615380E-1,1.268202603E-2,-1.350267690E0,1.406679418E0
6.531689792E0,-3.729194807E-1,-4.076725531E-1,-1.296911262E0,1.409696659E0
6.541642792E0,-4.679852669E-1,-4.686204207E-1,-1.414362529E0,1.561741551E0
6.551594792E0,-4.075651105E-1,-6.428633541E-1,-1.452227928E0,1.639618421E0
6.561546792E0,-1.147478065E-1,-4.020294052E-1,-1.235662848E0,1.304475901E0
6.571498792E0,6.508797406E-1,-2.335769695E-1,-8.790511054E-1,1.118451377E0
6.581451792E0,1.724276653E0,5.525618792E-4,-8.654668540E-1,1.929290843E0
6.591403792E0,2.544343970E0,9.023540139E-2,-9.259364194E-1,2.709093376E0
6.601355792E0,2.929179638E0,1.350923163E-1,-7.794063646E-1,3.034109024E0
6.611307792E0,2.690338420E0,3.233744144E-2,-4.050196713E-1,2.720846828E0
6.621260792E0,2.013751250E0,1.755889624E-1,3.448839819E-1,2.050602483E0
6.631212792E0,1.213261288E0,5.708490461E-1,7.807038617E-1,1.551570206E0
6.641165792E0,6.976196051E-1,2.868205458E-1,6.229073918E-1,9.782396218E-1
6.651117792E0,2.945517343E-1,3.175915182E-2,4.010464883E-1,4.986057096E-1
6.661070792E0,-1.913273281E-1,-2.110061324E-1,7.352733350E-1,7.885154479E-1
6.671022792E0,-7.246676552E-1,-3.870669651E-1,1.177384819E0,1.435687660E0
6.680974792E0,-9.866463053E-1,-4.559565210E-1,1.665591073E-1,1.099595024E0
6.690926792E0,-6.149396834E-1,7.877836704E-2,-6.394246066E-1,8.906293689E-1
6.700878792E0,-9.946172297E-2,1.150577674E0,-5.774020207E-1,1.291167964E0
6.710831792E0,3.993607360E-1,1.736878572E0,-3.847923982E-1,1.823266673E0
6.720783792E0,1.103351760E0,1.665453663E0,-4.936236995E-1,2.057859414E0
6.730735792E0,1.718591405E0,1.378852973E0,-8.246334082E-1,2.352618158E0
6.740687792E0,2.094818510E0,1.024878910E0,-8.457740164E-1,2.480720672E0
6.750640792E0,2.250035188E0,7.403025252E-1,-6.760205752E-1,2.463272213E0
6.760592792E0,2.173202482E0,5.707145602E-1,-7.031276822E-1,2.354339116E0
6.770544792E0,1.911986309E0,3.730669767E-1,-6.039717686E-1,2.039522618E0
6.780496792E0,1.666847055E0,3.589494592E-1,-4.686976039E-1,1.768304630E0
6.790449792E0,1.341592761E0,1.837025589E-1,-3.610263902E-1,1.401412794E0
6.800401792E0,8.669388905E-1,-2.538440037E-1,-2.416502202E-1,9.351014100E-1
6.810353792E0,3.527484870E-1,-5.588119680E-1,-2.177310151E-1,6.957794949E-1
6.820305792E0,-1.000309494E-1,-4.346194464E-1,-1.726904976E-1,4.782491631E-1
6.830258792E0,-3.697346485E-1,-2.406772435E-1,-7.618103385E-1,8.803318906E-1
6.840210792E0,-5.909927040E-1,-1.761193049E-1,-1.749954700E0,1.855433060E0
6.850162792E0,-8.336901605E-1,-4.270215744E-1,-2.417640070E0,2.592753404E0
6.860114792E0,-1.030662391E0,-8.544319886E-1,-1.851861144E0,2.285105837E0
6.870066792E0,-1.066049447E0,-1.168202351E0,-9.978197497E-1,1.869973906E0
6.880019792E0,-1.006604314E0,-1.484708626E0,-4.788542175E-1,1.856586468E0
6.889971792E0,-9.129038528E-1,-1.688253127E0,-1.685056454E-1,1.926651556E0
6.899923792E0,-8.441400120E-1,-1.842008586E0,-9.814013529E-1,2.251381044E0
6.909875792E0,-7.595439577E-1,-1.641773610E0,-1.045665761E0,2.089436406E0
6.919828792E0,-4.481300229E-1,-1.129172187E0,-1.237720483E0,1.734301686E0
6.929780792E0,2.563843265E-2,-5.438495278E-1,-1.495698468E0,1.591710886E0
6.939732792E0,5.915442427E-1,-1.291100299E-1,-1.627726259E0,1.736688448E0
6.949684792E0,1.041909656E0,1.512230301E-1,-1.883563578E0,2.157835927E0
6.959637792E0,1.381983280E0,2.597847748E-1,-1.940911900E0,2.396769684E0
6.969589792E0,1.617601951E0,3.432683963E-1,-1.892886963E0,2.513461820E0
6.979541792E0,1.738099325E0,6.237768728E-1,-1.746364510E0,2.541628582E0
6.989493792E0,1.977910157E0,6.250311005E-1,-1.672467399E0,2.664571197E0
6.999446792E0,2.152770995E0,5.321334618E-1,-1.578278695E0,2.721865650E0
7.009398792E0,2.190823797E0,4.359444255E-1,-1.225486354E0,2.547856600E0
7.019350792E0,2.026234178E0,2.150167376E-1,-9.054735035E-1,2.229739762E0
7.029302792E0,1.873057593E0,1.420236057E-1,-4.478674829E-1,1.931087967E0
7.039255792E0,1.645018960E0,9.142414033E-2,-1.598827565E-1,1.655297028E0
7.049207792E0,1.260671097E0,1.168449104E-1,6.694535673E-2,1.267843061E0
7.059159792E0,6.164740659E-1,1.324254012E-1,8.958074713E-1,1.095466926E0
7.069111792E0,-1.325244384E-1,3.908208776E-1,1.713977952E0,1.762958906E0
7.079063792E0,-1.216537556E0,3.447904265E-1,2.188422199E0,2.527456386E0
7.089016792E0,-2.346985532E0,-2.373607028E-1,2.150983062E0,3.192398679E0
7.098968792E0,-3.380068085E0,-5.254951179E-2,2.420657233E0,4.157788252E0
7.108920792E0,-3.389342061E0,-1.121661438E0,-5.926153064E-3,3.570125924E0
7.118872792E0,-1.224177966E0,-3.643189573E-1,-1.345210433E0,1.854974691E0
7.128825792E0,3.905404305E-1,1.013149395E0,-1.853381420E0,2.148026120E0
7.138777792E0,9.756085163E-1,5.544569618E-1,-1.243896897E0,1.675265349E0
7.148729792E0,6.244789041E-1,-9.338324994E-1,-7.582879758E-1,1.355366258E0
7.158681792E0,3.874081136E-1,-1.220879917E0,1.603856170E-1,1.290874264E0
7.168634792E0,1.229859852E-1,-1.053234397E0,7.133100235E-1,1.277982565E0
7.178586792E0,-3.101055472E-1,-8.680244261E-1,6.415804750E-1,1.123057149E0
7.188538792E0,-5.391322135E-1,-5.384952325E-1,3.165577304E-1,8.251360226E-1
7.198490792E0,-8.840678702E-1,-3.146474451E-1,-8.083424807E-2,9.418668640E-1
7.208442792E0,-1.280316280E0,4.126029253E-2,-5.318498719E-1,1.387002694E0
7.218395792E0,-1.721545419E0,-4.963525951E-1,-3.440174246E-1,1.824399220E0
7.228347792E0,-1.670109655E0,-7.287338090E-1,2.041438401E-1,1.833574087E0
7.238299792E0,-1.105762859E0,-5.504855329E-1,5.059221482E-1,1.334804496E0
7.248251792E0,-5.650078239E-1,-2.458327335E-1,6.899492276E-1,9.250391940E-1
7.258204792E0,-4.717797444E-1,6.667696953E-2,4.580849075E-1,6.609566763E-1
7.268156792E0,-9.135934588E-1,2.386558610E-1,-3.804660434E-1,1.018019665E0
7.278108792E0,-7.356483608E-1,7.544679898E-1,-1.485427834E0,1.821234830E0
7.288060792E0,1.894392622E-1,1.044495733E0,-2.828328617E0,3.020976884E0
7.298013792E0,-5.001060690E-1,5.223306048E-1,-9.287992162E-1,1.177116530E0
7.307965792E0,-1.359413320E0,-5.373585337E-1,3.421122848E0,3.720327984E0
7.317917792E0,-1.677828272E0,-1.432037492E0,5.664979575E0,6.079295410E0
7.327869792E0,-1.640829869E0,-1.150692864E0,4.521743665E0,4.945966286E0
7.337822792E0,-1.682434562E0,-8.021473557E-1,2.228812426E0,2.905448549E0
7.347774792E0,-1.299677434E0,-4.965666032E-1,1.159867145E0,1.811361813E0
7.357726792E0,-9.006708929E-1,-3.300168514E-1,1.146554790E0,1.494893663E0
7.367678792E0,-1.225710156E0,-1.003654101E0,1.028955004E0,1.889030265E0
7.377630792E0,-1.763145727E0,-1.603999427E0,1.149851450E0,2.646442021E0
7.387583792E0,-1.635285685E0,-1.429778713E0,1.657233648E0,2.732187732E0
7.397535792E0,-1.163031074E0,-1.081707414E0,1.540839558E0,2.212898269E0
7.407487792E0,-9.158319922E-1,-7.219907999E-1,9.748513019E-1,1.519984873E0
7.417439792E0,-8.489800447E-1,-3.952133060E-1,6.068790042E-1,1.115913437E0
7.427392792E0,-7.837439753E-1,-4.852393770E-1,6.040647393E-1,1.102091685E0
7.437344792E0,-9.445099537E-1,-5.478460997E-1,6.960361791E-1,1.294874806E0
7.447296792E0,-8.197050825E-1,-7.458129412E-1,6.628655094E-1,1.291334213E0
7.457248792E0,-4.791354686E-1,-5.576162124E-1,3.082605314E-1,7.972021029E-1
7.467201792E0,3.690492086E-1,-1.753901571E-1,3.982737386E-1,5.705970526E-1
7.477153792E0,1.390522700E0,-2.388879955E-1,4.584222919E-1,1.483499865E0
7.487105792E0,8.235059188E-1,-3.049024755E-1,-3.839281797E-3,8.781470594E-1
7.497057792E0,9.786802049E-1,-9.496983343E-1,5.826750398E-2,1.364967755E0
7.507010792E0,1.441167773E0,-1.279299449E0,3.659216791E-1,1.961496955E0
7.516962792E0,1.415769954E0,-7.187952965E-1,-2.983717203E-2,1.588068480E0
7.526914792E0,1.383362930E0,-1.629624850E-1,1.402315511E0,1.976547131E0
7.536866792E0,1.451907062E0,2.276239192E-1,1.065101906E0,1.815017586E0
7.546818792E0,1.428282995E0,1.005949134E0,1.115362818E0,2.072669821E0
7.556771792E0,2.004429180E0,1.001657862E0,6.569808716E-1,2.335097145E0
7.566723792E0,2.596876818E0,6.767947465E-1,-3.002229488E-1,2.700361856E0
7.576675792E0,2.069584266E0,5.948822719E-1,-1.611951056E0,2.689879208E0
7.586627792E0,1.115960695E0,4.037660283E-1,-1.956449121E0,2.288250083E0
7.596580792E0,5.983834384E-1,6.684887767E-2,-1.373982242E0,1.500119567E0
7.606532792E0,1.962541920E-1,-1.124168140E-1,-6.211906493E-1,6.610832555E-1
7.616484792E0,1.758424392E-1,-4.330284190E-1,-4.260222852E-1,6.323995277E-1
7.626436792E0,3.986274952E-1,-6.506717259E-1,-2.111441267E-1,7.917445402E-1
7.636388792E0,6.993834177E-1,-4.452479303E-1,2.089397264E-1,8.550080079E-1
7.646340792E0,7.907083015E-1,-4.740454674E-2,4.037654436E-1,8.890969253E-1
7.656292792E0,5.604369092E-1,2.360941958E-1,4.057944274E-1,7.310944644E-1
7.666244792E0,1.215105499E-1,1.932142246E-1,5.074342382E-1,5.564045798E-1
7.676196792E0,-5.889102182E-1,5.185310841E-3,7.781480438E-1,9.758875501E-1
7.686149792E0,-9.330425406E-1,-2.071574950E-1,1.057155540E0,1.425152780E0
7.696101792E0,-8.327809185E-1,-2.185279906E-2,1.449881440E0,1.672171580E0
7.706053792E0,-5.318478984E-1,3.230288440E-1,9.709564716E-1,1.153241645E0
7.716005792E0,-2.023735955E-1,5.102514267E-1,1.040339532E0,1.176272899E0
7.725958792E0,-7.291931078E-2,4.994440180E-1,1.163210583E0,1.267998586E0
7.735910792E0,3.348576151E-2,6.821408558E-1,1.102679037E0,1.297049923E0
7.745862792E0,-1.888539559E-1,7.977753925E-1,3.771968651E-1,9.024349664E-1
7.755814792E0,-3.917176943E-1,8.627584237E-1,-1.858549190E-1,9.655759424E-1
7.765767792E0,-7.273286500E-1,7.130030447E-1,-9.113400149E-1,1.366719038E0
7.775719792E0,-8.112484737E-1,5.627997690E-1,-1.292696005E0,1.626631681E0
7.785671792E0,-5.366867252E-1,3.087236309E-1,-1.342710748E0,1.478585498E0
7.795623792E0,-2.191289747E-1,4.019545609E-1,-8.683863688E-1,9.816719727E-1
7.805575792E0,1.563608688E-1,7.618027371E-1,-5.775049317E-1,9.686609715E-1
7.815528792E0,3.306992215E-1,6.731244493E-1,-3.772196692E-1,8.394957880E-1
7.825480792E0,9.928853575E-2,6.825103998E-1,-2.781070250E-1,7.436546084E-1
7.835432792E0,6.808327971E-2,5.790100050E-1,-4.487223458E-1,7.356899228E-1
7.845384792E0,-2.792600960E-2,2.033187979E-1,-5.044919193E-1,5.446379460E-1
7.855337792E0,1.567815760E-2,2.262989402E-2,-1.706375402E-1,1.728441114E-1
7.865289792E0,3.056912649E-1,-1.067333204E-1,1.398086804E-1,3.526834533E-1
7.875241792E0,2.859362823E-1,-2.728363448E-1,8.757959604E-2,4.048078733E-1
7.885193792E0,-9.142984137E-2,-3.713391244E-1,5.366106749E-1,6.589409515E-1
7.895146792E0,-1.456728164E-1,-3.383181435E-1,1.780085403E0,1.817796407E0
7.905098792E0,-2.997660802E-1,-3.733564138E-1,2.488504815E0,2.534148956E0
7.915050792E0,-3.445465245E-1,-1.992584914E-1,2.701903628E0,2.731061967E0
7.925002792E0,2.215891907E-1,7.006408614E-1,1.399105974E0,1.580347086E0
7.934954792E0,7.107930896E-1,1.197638404E0,-3.225943959E-1,1.429556472E0
7.944907792E0,8.513192964E-1,1.002304564E0,-6.152235657E-1,1.451846762E0
7.954859792E0,6.969986308E-1,9.452702379E-1,2.727141380E-3,1.174457471E0
7.964811792E0,6.165712027E-1,8.856906188E-1,4.728690076E-1,1.178224520E0
7.974763792E0,9.136375321E-1,6.386171061E-1,2.022095811E-1,1.132896316E0
7.984716792E0,7.443694098E-1,3.857033944E-1,8.783804297E-2,8.429522220E-1
7.994668792E0,3.891917336E-1,2.614652646E-1,2.618745697E-1,5.370405761E-1
8.004620792E0,1.340620369E-3,2.316935813E-1,3.847432816E-1,4.491225953E-1
8.014572792E0,-4.573530919E-1,1.427048063E-1,2.373893541E-1,5.346870280E-1
8.024525792E0,-8.180035427E-1,6.290434599E-2,1.829318959E-1,8.405657804E-1
8.034477792E0,-1.064284173E0,-1.012094557E-2,-3.052117932E-1,1.107229639E0
8.044429792E0,-1.038174162E0,-2.568512267E-1,-9.262550926E-1,1.414823890E0
8.054381792E0,-8.483005983E-1,-7.607648563E-1,-1.499409111E0,1.883243148E0
8.064333792E0,-5.532805385E-1,-9.742051846E-1,-1.504825387E0,1.876084897E0
8.074286792E0,-1.421049551E-1,-9.741993374E-1,-1.215350205E0,1.564076177E0
8.084238792E0,1.578303472E-1,-9.527915114E-1,-1.316622226E0,1.632855220E0
8.094190792E0,2.073098150E-1,-8.506342220E-1,-1.652259421E0,1.869897627E0
8.104142792E0,3.317982057E-1,-6.029385656E-1,-1.321892322E0,1.490310127E0
8.114095792E0,5.483705950E-1,-5.891291964E-1,-1.800618485E0,1.972310941E0
8.124047792E0,9.926655753E-1,-3.650919592E-1,-1.877656721E0,2.155057272E0
8.133999792E0,1.623623706E0,-1.238171303E-1,-1.703682759E0,2.356696749E0
8.143951792E0,1.982981155E0,1.618257862E-1,-1.270718075E0,2.360746973E0
8.153904792E0,1.821836130E0,2.209370434E-2,-8.913770360E-1,2.028331343E0
8.163856792E0,1.597048111E0,1.238329178E-1,-9.200009108E-1,1.847240898E0
8.173808792E0,1.312342503E0,3.041709888E-1,-1.060545171E0,1.714502521E0
8.183760792E0,8.833478587E-1,2.614062077E-1,-7.572167659E-1,1.192482233E0
8.193712792E0,3.345012638E-1,1.804006362E-1,1.139037609E-2,3.802173401E-1
8.203665792E0,1.238597419E-2,1.631285459E-1,8.739394695E-1,8.891200881E-1
8.213617792E0,-2.823709974E-1,2.194243687E-1,1.329293727E0,1.376554484E0
8.223569792E0,-6.176554227E-1,1.705773139E-1,1.017982119E0,1.202864263E0
8.233521792E0,-6.860098853E-1,-2.365736675E-1,8.360927814E-1,1.107080757E0
8.243474792E0,-7.539254413E-1,-2.275537527E-1,1.098529269E0,1.351647452E0
8.253426792E0,-7.081326795E-1,-3.028156042E-2,4.880916488E-1,8.605825483E-1
8.263378792E0,-4.881827192E-1,4.033000052E-2,-1.390438646E-1,5.091974789E-1
8.273330792E0,-1.347764204E-1,5.990507519E-1,1.089827442E-1,6.236214600E-1
8.283283792E0,7.386911787E-2,1.018612449E0,7.573114908E-1,1.271435669E0
8.293235792E0,1.004805272E-1,9.809411770E-1,9.443873084E-1,1.365360508E0
8.303187792E0,-2.244060503E-1,3.177862304E-1,6.521306062E-1,7.593553129E-1
8.313139792E0,-7.300268476E-1,-5.158723551E-1,3.376194012E-1,9.555366791E-1
8.323091792E0,-1.460098573E0,-8.580660331E-1,1.828658223E-1,1.703409836E0
8.333044792E0,-1.947945662E0,-5.450347584E-1,2.274344695E-1,2.035505251E0
8.342996792E0,-2.192011513E0,-1.671865135E-1,3.442934132E-1,2.225174995E0
8.352948792E0,-1.820176837E0,-4.316414595E-2,2.152512109E-1,1.833368469E0
8.362900792E0,-1.338643279E0,-6.904924339E-1,-3.531402504E-1,1.547079076E0
8.372853792E0,-9.004777886E-1,-7.232602304E-1,-7.469244969E-1,1.375449677E0
8.382805792E0,-5.261591423E-1,-4.819538265E-1,-7.139976561E-1,1.009413487E0
8.392757792E0,-5.373067128E-1,-4.630842769E-1,-4.557694101E-1,8.431318440E-1
8.402709792E0,-5.501723414E-1,-1.537390870E-1,-2.300107527E-1,6.158167410E-1
8.412661792E0,-5.881914492E-1,-3.819822264E-1,6.314291239E-2,7.041779814E-1
8.422614792E0,-4.882436033E-1,-8.254087490E-1,1.413283718E-1,9.693581009E-1
8.432566792E0,-4.231061326E-1,-8.391549683E-1,5.101461768E-2,9.411707345E-1
8.442518792E0,-4.724267388E-1,-7.720254242E-1,-1.992526442E-1,9.267749972E-1
8.452470792E0,-3.952428344E-1,-6.589923137E-1,-5.718050659E-1,9.578354770E-1
8.462423792E0,-1.975109048E-1,-6.137488979E-1,-9.166533798E-1,1.120692503E0
8.472375792E0,2.120144847E-1,-8.288258618E-1,-9.678018987E-1,1.291720932E0
8.482327792E0,9.922545160E-1,-1.026208566E0,-6.857532656E-1,1.583644716E0
8.492279792E0,1.408155710E0,-1.102356271E0,-7.573962754E-1,1.942097054E0
8.502232792E0,1.423022255E0,-7.517531276E-1,-3.762484467E-1,1.652781897E0
8.512184792E0,9.744715983E-1,-3.861360884E-1,-2.031006968E-1,1.067682475E0
8.522136792E0,2.913222440E-1,-1.262700373E-1,-6.494438106E-1,7.229038908E-1
8.532088792E0,-4.287716460E-1,-2.209604323E-2,-1.084154474E0,1.166072160E0
8.542040792E0,-1.102202051E0,-4.084040397E-1,-6.858532530E-1,1.360895994E0
8.551993792E0,-1.597939957E0,-1.128060046E0,4.251568973E-1,2.001671792E0
8.561945792E0,-1.770500939E0,-1.171211913E0,1.715893500E0,2.729597301E0
8.571897792E0,-1.810132636E0,-7.400165963E-1,1.730164214E0,2.611067393E0
8.581849792E0,-1.850339845E0,-3.092282456E-1,9.266667366E-1,2.092388800E0
8.591802792E0,-1.964781257E0,1.702492851E-1,1.323911365E0,2.375308719E0
8.601754792E0,-1.361752645E0,1.760670308E0,3.615248069E0,4.245509250E0
8.611706792E0,1.896513991E0,4.761530963E0,4.329776652E0,6.709389561E0
8.621658792E0,6.057462524E-1,-1.488753730E-1,4.311935627E-1,7.583009215E-1
8.631611792E0,-1.874559158E0,-1.244232527E0,8.978458107E-1,2.422439621E0
8.641564042E0,-2.878795350E0,-4.091554070E-1,1.496963806E0,3.270439030E0
8.651516042E0,-2.531788244E0,2.355100590E-1,3.332429357E0,4.191718278E0
8.661468042E0,-1.407700358E0,5.983292055E-1,3.912702361E0,4.201054379E0
8.671420042E0,-1.075916770E0,4.557512838E-1,3.377445316E0,3.573855480E0
8.681373042E0,-2.131903890E0,-6.321284509E-1,2.991395767E0,3.727338086E0
8.691325042E0,-2.424288500E0,-7.648620003E-1,2.514010370E0,3.575253383E0
8.701277042E0,-2.501622751E0,-1.276195747E0,2.028665743E0,3.464430208E0
8.711229042E0,-1.815689830E0,-2.339596113E0,1.379656380E0,3.267092172E0
8.721182042E0,1.283577856E-1,-4.505648035E-1,5.999944925E-1,7.612343623E-1
8.731134042E0,1.424000494E0,1.123785147E0,1.807035220E-1,1.822998691E0
8.741086042E0,1.708944961E0,2.041286373E0,-9.281226933E-2,2.663823766E0
8.751038042E0,1.467779475E0,2.461961380E0,9.452842712E-2,2.867850423E0
8.760990042E0,1.036518669E0,1.897046673E0,-4.832805598E-1,2.215111087E0
8.770943042E0,4.354938244E-1,8.129033089E-1,-9.759880006E-1,1.342765519E0
8.780895042E0,6.987656593E-2,2.159435213E-2,-6.017276073E-1,6.061560557E-1
8.790847042E0,2.561723650E-1,-6.869998920E-1,9.463893950E-2,7.392899709E-1
8.800799042E0,7.941584511E-1,-8.868887132E-1,1.188848870E0,1.682444909E0
8.810752042E0,1.228942935E0,-6.116111559E-1,2.123231592E0,2.528335685E0
8.820704042E0,1.328285960E0,-2.794039375E-1,1.815393814E0,2.266729991E0
8.830656042E0,1.133929189E0,-6.998473942E-2,3.931188333E-1,1.202179557E0
8.840608042E0,1.100087113E0,4.691723979E-1,-8.849222946E-1,1.487750605E0
8.850560042E0,1.080394787E0,7.285852897E-1,-8.420049012E-1,1.551470810E0
8.860513042E0,1.263522784E0,8.054954714E-1,-4.756312323E-1,1.572112543E0
8.870465042E0,1.496382885E0,8.413307172E-1,1.206467700E-1,1.720916836E0
8.880417042E0,1.616121874E0,8.249251842E-1,2.636199635E-1,1.833534008E0
8.890369042E0,1.857013126E0,8.136880052E-1,2.496585667E-1,2.042771480E0
8.900322042E0,2.030097580E0,7.126457798E-1,3.573022985E-1,2.181014700E0
8.910274042E0,1.664069043E0,5.478560400E-1,3.879317683E-1,1.794369827E0
8.920226042E0,9.789572167E-1,3.988830185E-1,-2.901657379E-1,1.096203015E0
8.930178042E0,5.497125310E-1,6.007914680E-1,-5.931058878E-1,1.007426845E0
8.940131042E0,-1.050799470E0,-1.716473544E-1,-4.812849051E-1,1.168450898E0
8.950083042E0,-1.851289140E0,-2.531014073E-1,-2.358299017E-2,1.868659402E0
8.960035042E0,-1.530938321E0,-1.620093888E-1,2.478196174E-1,1.559305534E0
8.969987042E0,-9.995169771E-1,8.508809745E-2,1.670853567E-1,1.016952156E0
8.979939042E0,-1.100301267E-1,2.902113461E-1,-8.062550247E-2,3.206707437E-1
8.989892042E0,5.936439778E-1,2.736303967E-1,3.182949382E-1,7.270477523E-1
8.999844042E0,1.286119495E0,8.976610386E-1,1.105854660E0,1.919065717E0
9.009796042E0,1.674699427E0,1.157126555E0,6.956619573E-1,2.151163777E0
9.019748042E0,1.847623959E0,1.179757619E0,-4.013979059E-1,2.228601044E0
9.029701042E0,1.558558375E0,8.720689452E-1,-1.594703524E0,2.394303193E0
9.039653042E0,1.100183007E0,6.518820995E-1,-2.119054341E0,2.475024085E0
9.049605042E0,5.653373145E-1,-1.007767618E-2,-1.805309122E0,1.891784571E0
9.059557042E0,6.511013500E-1,-4.694957489E-1,-1.212717204E0,1.454318481E0
9.069509042E0,1.186859355E0,-5.784837556E-1,-7.876655567E-1,1.537431498E0
9.079462042E0,1.774164074E0,-5.937502509E-1,3.983006358E-2,1.871305415E0
9.089414042E0,2.622566267E0,1.221150059E-1,4.001033324E-1,2.655719973E0
9.099366042E0,2.847696057E0,3.707380307E-1,1.197410363E-1,2.874222927E0
9.109318042E0,2.554796453E0,3.519129199E-1,-4.451385874E-1,2.617054830E0
9.119271042E0,1.936321689E0,3.882241291E-1,-1.308118621E0,2.368804336E0
9.129223042E0,1.005726062E0,2.154798371E-1,-1.286767513E0,1.647327261E0
9.139175042E0,2.496509653E-1,1.282019573E-1,-5.447663713E-1,6.128064504E-1
9.149127042E0,-7.923409903E-1,-5.053011739E-1,-1.014211249E-1,9.452088478E-1
9.159079042E0,-1.587488936E0,-5.605240327E-1,1.054007399E-1,1.686836575E0
9.169032042E0,-1.954501998E0,-2.832970136E-1,7.788491249E-3,1.974942004E0
9.178984042E0,-1.743637661E0,-2.280297160E-2,-5.866926616E-1,1.839837098E0
9.188936042E0,-7.473791179E-1,1.343239921E-1,-9.084298557E-1,1.184003076E0
9.198888042E0,6.356063747E-1,1.545939499E-1,-9.749378407E-1,1.174052191E0
9.208841042E0,1.560523332E0,-8.090382993E-2,-1.118937513E0,1.921926028E0
9.218793042E0,1.938865667E0,-5.637592971E-1,-1.032141151E0,2.267672810E0
9.228745042E0,1.955125896E0,-7.358685815E-1,-4.605366451E-1,2.139185322E0
9.238697042E0,1.841984612E0,-6.612674654E-1,1.992830497E-1,1.967205049E0
9.248649042E0,1.548109693E0,-5.304155499E-1,6.004342031E-1,1.743130950E0
9.258602042E0,1.198504669E0,-1.768367583E-1,6.615022311E-1,1.380315139E0
9.268554042E0,9.352732533E-1,2.572084916E-1,6.327622890E-1,1.158136599E0
9.278506042E0,6.331163380E-1,6.716065121E-1,4.531960505E-1,1.028240373E0
9.288458042E0,4.648936978E-1,8.655457914E-1,3.051243773E-1,1.028784017E0
9.298411042E0,3.639374265E-1,1.032162786E0,3.949647993E-1,1.163532406E0
9.308363042E0,5.613552144E-1,1.300321943E0,5.450113696E-1,1.517561935E0
9.318315042E0,9.541316932E-1,1.288122897E0,3.310518086E-2,1.603347698E0
9.328267042E0,1.049367633E0,1.022790284E0,-4.217058706E-1,1.524830560E0
9.338219042E0,1.016937514E0,6.332476079E-1,-7.404989916E-1,1.408368984E0
9.348172042E0,9.873333532E-1,3.298648238E-1,-9.451375061E-1,1.406030888E0
9.358124042E0,6.937920177E-1,1.704083294E-1,-8.764800847E-1,1.130753599E0
9.368076042E0,3.154534838E-1,-1.097522378E-3,-1.307586524E0,1.345100228E0
9.378028042E0,2.461201242E-1,-2.357918948E-1,-2.044269623E0,2.072489137E0
9.387981042E0,5.439448375E-1,-4.901568854E-1,-2.391204223E0,2.500797352E0
9.397933042E0,6.132223561E-1,-6.495309341E-1,-2.562097287E0,2.713351175E0
9.407885042E0,5.192862520E-1,-4.421453977E-1,-2.200784090E0,2.304040229E0
9.417837042E0,4.925454730E-1,-4.597314835E-2,-1.887369823E0,1.951122606E0
9.427789042E0,4.960792378E-1,-1.013930583E-1,-2.504127991E0,2.554805698E0
9.437742042E0,5.560924280E-1,-2.858902538E-1,-2.984548677E0,3.049344656E0
9.447694042E0,6.243776742E-1,-4.284892255E-1,-3.171305822E0,3.260464861E0
9.457646042E0,5.302199605E-1,-5.278720111E-1,-3.113563690E0,3.202196265E0
9.467598042E0,7.080025059E-1,-5.570560491E-1,-2.602020906E0,2.753559838E0
9.477551042E0,1.037844818E0,-5.003643698E-1,-1.763990357E0,2.106928653E0
9.487503042E0,1.169377934E0,-3.027840292E-1,-1.641750805E0,2.038251365E0
9.497455042E0,1.280788735E0,-2.076100695E-1,-1.878244951E0,2.282832849E0
9.507407042E0,1.494213860E0,-3.939462143E-1,-2.039995308E0,2.559189234E0
9.517359042E0,1.875766901E0,-5.617835230E-1,-1.953996214E0,2.766261629E0
9.527312042E0,2.410002144E0,-7.667681926E-1,-1.880185057E0,3.151371074E0
9.537264042E0,2.830690892E0,-1.022814842E0,-1.757860136E0,3.485546354E0
9.547216042E0,2.932972727E0,-1.044893344E0,-1.539385940E0,3.473303930E0
9.557168042E0,2.874585355E0,-9.014985663E-1,-5.315352917E-1,3.059161714E0
9.567121042E0,2.614478399E0,-7.514075571E-1,7.251518047E-1,2.815307399E0
9.577073042E0,2.030653796E0,-5.596223921E-1,1.764051168E0,2.747473127E0
9.587025042E0,1.128302121E0,-2.272222155E-1,2.505340703E0,2.757068670E0
9.596977042E0,4.267758451E-2,1.602382672E-1,2.972222747E0,2.976844929E0
9.606929042E0,-8.655371667E-1,8.185949886E-1,3.172958245E0,3.389235366E0
9.616882042E0,-1.353415831E0,1.302305903E0,3.205265281E0,3.715031709E0
9.626834042E0,-1.615141443E0,1.067689299E0,3.044361600E0,3.607877475E0
9.636786417E0,-1.579365838E0,1.070262074E0,2.601224515E0,3.225868307E0
9.646738417E0,-1.505009574E0,7.326719087E-1,1.724363776E0,2.403183800E0
9.656691417E0,-1.415389592E0,-4.418974757E-2,1.048122761E0,1.761772333E0
9.666643417E0,-1.075968079E0,-4.403245747E-1,1.051314172E0,1.567435653E0
9.676595417E0,-5.167236366E-1,-2.933267426E-1,1.463058726E0,1.579108840E0
9.686547417E0,-8.293398321E-1,-3.710233748E-2,1.791668152E0,1.974653364E0
9.696499417E0,-1.396150645E0,2.873053384E0,4.439275705E0,5.469080467E0
9.706452417E0,-2.404730587E0,5.197642618E-1,1.597528898E0,2.933425074E0
9.716404417E0,-2.707554670E0,-1.330345057E0,7.764862651E-1,3.115060381E0
9.726356417E0,-2.479990100E0,-5.146116954E-1,6.221659648E-1,2.608115523E0
9.736308417E0,-2.188812647E0,-8.371259844E-1,1.351051801E-1,2.347324888E0
9.746261417E0,-1.910799324E0,-5.547148240E-1,2.865930891E-1,2.010223418E0
9.756213417E0,-1.362579002E0,-7.317848861E-1,1.146381712E-1,1.550894119E0
9.766165417E0,-7.652575645E-1,-6.991194159E-1,-1.195094866E-1,1.043393318E0
9.776117417E0,-4.158739674E-1,-7.563385141E-1,-4.988388312E-1,9.969148831E-1
9.786069417E0,-2.029472805E-1,-7.938969344E-1,-1.666388633E0,1.856962848E0
9.796022417E0,2.777522452E-2,-4.170731217E-1,-2.951204930E0,2.980659657E0
9.805974417E0,1.778999282E-1,-4.443357646E-2,-4.167238090E0,4.171270313E0
9.815926417E0,1.862018050E-1,-7.610671574E-1,-3.450911488E0,3.538740514E0
9.825878417E0,-9.336119863E-1,-1.675278155E0,2.275013031E0,2.975545753E0
9.835831417E0,-1.685900061E0,-1.630085025E0,5.722360057E0,6.184241330E0
9.845783417E0,-1.376379747E0,-1.010376645E0,4.278455640E0,4.606567577E0
9.855735417E0,-1.490231614E0,-9.288138342E-1,2.541735528E0,3.089321106E0
9.865687417E0,-2.042984989E0,-1.359676445E0,2.188321627E0,3.288047938E0
9.875639417E0,-1.992896571E0,-1.085029217E0,2.035037454E0,3.047999767E0
9.885592417E0,-1.240026625E0,-9.772439826E-1,1.800988614E0,2.395043177E0
9.895544417E0,-5.966404565E-1,-7.608239132E-1,1.882813965E0,2.116558832E0
9.905496417E0,-2.036401024E-1,-2.698443246E-1,1.588031266E0,1.623615888E0
9.915448417E0,-2.270768391E-1,6.655300856E-3,1.269803571E0,1.289964841E0
9.925400417E0,-4.640012665E-1,2.075738168E-1,8.831406480E-1,1.018980603E0
9.935353417E0,-6.843359005E-1,-1.192703354E-1,5.526238596E-1,8.876565597E-1
9.945305417E0,-9.168504310E-1,-5.607204992E-1,5.539412373E-1,1.209079437E0
9.955257417E0,-1.101218549E0,-8.536531395E-1,3.060970616E-1,1.426569797E0
9.965209417E0,-1.173940809E0,-8.947678363E-1,1.433982861E-1,1.483006936E0
9.975162417E0,-1.182636203E0,-7.849284750E-1,-1.163899970E-1,1.424179670E0
9.985114417E0,-9.776405700E-1,-3.304115385E-1,6.674947500E-2,1.034122024E0
9.995066417E0,-1.092369665E0,-2.838501602E-1,3.169880855E-1,1.172315591E0
1.000501842E1,-6.027612488E-1,-3.956383985E-1,7.293232083E-1,1.025555073E0
1.001497042E1,-2.588224693E-1,-5.705245256E-1,2.762435174E-1,6.846880939E-1
1.002492342E1,-4.309017867E-2,-5.248402297E-1,-2.828192961E-1,5.977464216E-1
1.003487542E1,5.775242275E-1,-2.467215103E-1,-1.862718254E-1,6.550594858E-1
1.004482742E1,7.606248155E-1,-1.217986715E-1,2.171568185E-1,8.003387472E-1
1.005477942E1,6.655110821E-1,1.101059943E-1,4.899183190E-1,8.336955618E-1
1.006473242E1,9.319122738E-1,6.140810198E-1,7.625307155E-1,1.351668997E0
1.007468442E1,1.130540143E0,1.339878357E0,2.482610822E-1,1.770601195E0
1.008463642E1,1.158341388E0,1.540175899E0,-6.472487658E-1,2.032935693E0
1.009458842E1,1.016787386E0,9.696654063E-1,-1.208320098E0,1.853144638E0
1.010454042E1,5.615809169E-1,3.911489064E-1,-1.282525942E0,1.453699895E0
1.011449342E1,-1.222569470E-1,2.014564598E-1,-1.120235302E0,1.144752637E0
1.012444542E1,-8.919975717E-1,-2.196664435E-1,-9.063248581E-1,1.290479664E0
1.013439742E1,-1.369134901E0,-4.306410009E-1,-4.217877316E-1,1.495956864E0
1.014434942E1,-1.384787458E0,-3.238152945E-1,2.583171237E-1,1.445413569E0
1.015430242E1,-1.206909603E0,-4.932711124E-2,2.256803048E-1,1.228818764E0
1.016425442E1,-9.038569676E-1,3.668923169E-1,-1.877780682E-1,9.933921648E-1
1.017420642E1,-7.734227626E-1,7.598380727E-1,8.870284617E-2,1.087844135E0
1.018415842E1,-6.906013383E-1,1.339803513E0,4.430511314E-1,1.571081782E0
1.019411042E1,-4.236897578E-1,1.719222320E0,9.890916109E-2,1.773420824E0
1.020406342E1,-1.995861182E-1,1.613114067E0,-2.455093825E-1,1.643851109E0
1.021401542E1,-6.123048915E-2,8.899602556E-1,-1.171972051E0,1.472853325E0
1.022396742E1,1.042291041E-1,2.942997193E-1,-1.831501139E0,1.857921542E0
1.023391942E1,3.309124256E-1,-1.644728208E-1,-1.653348173E0,1.694141235E0
1.024387142E1,5.432606401E-1,-3.252121943E-1,-1.312501693E0,1.457242529E0
1.025382442E1,3.854898249E-1,-4.027269781E-2,-9.111102194E-1,9.901242988E-1
1.026377642E1,-1.970817740E-1,2.664488465E-1,-6.340252876E-1,7.154189533E-1
1.027372842E1,-6.546855471E-1,5.111887354E-1,-4.591134328E-1,9.490586035E-1
1.028368042E1,-7.908448340E-1,6.624456793E-1,5.513573527E-2,1.033106857E0
1.029363342E1,-6.721665291E-1,7.346669787E-1,1.197017430E0,1.557046608E0
1.030358542E1,-3.570895695E-1,6.117883265E-1,2.474270353E0,2.573676689E0
1.031353742E1,-4.338049293E-3,5.441588455E-1,2.034526992E0,2.106045524E0
1.032348942E1,1.883004438E-1,7.149770647E-1,1.041925882E0,1.277598843E0
1.033344142E1,2.299859751E-1,1.250146986E0,9.520003831E-1,1.588101308E0
1.034339442E1,3.681044447E-1,1.597210810E0,8.984100670E-1,1.869150583E0
1.035334642E1,6.349256857E-1,1.612758556E0,1.063904396E0,2.033719093E0
1.036329842E1,1.086724398E0,2.148438939E0,1.139409492E0,2.663646707E0
1.037325042E1,1.244969715E0,2.459288617E0,4.994943041E-1,2.801346936E0
1.038320342E1,1.440478241E0,2.774282802E0,-5.158413649E-3,3.125963729E0
1.039315542E1,1.598874196E0,2.585351663E0,-4.274156767E-1,3.069711074E0
1.040310742E1,1.210297553E0,1.730290514E0,-1.042048674E0,2.354695494E0
1.041305942E1,3.769725513E-1,5.208068204E-1,-9.060015070E-1,1.110939593E0
1.042301142E1,-4.276625023E-1,-6.804135883E-1,-8.517165416E-1,1.171016197E0
1.043296442E1,-7.737143925E-1,-1.408618809E0,-1.469294196E0,2.177536761E0
1.044291642E1,-4.814783017E-1,-1.581456072E0,-1.886864331E0,2.508601536E0
1.045286842E1,1.734220574E-1,-1.609133282E0,-2.404658082E0,2.898579931E0
1.046282042E1,7.390523174E-1,-1.306464443E0,-2.692565625E0,3.082686704E0
1.047277242E1,1.060970410E0,-9.933489686E-1,-2.978098029E0,3.313829847E0
1.048272542E1,1.223662022E0,-7.620565063E-1,-3.046301122E0,3.370167561E0
1.049267742E1,1.320810294E0,-5.840175605E-1,-2.726977074E0,3.085777099E0
1.050262942E1,1.153442810E0,-3.328147441E-1,-1.743379506E0,2.116735239E0
1.051258142E1,8.866264656E-1,-2.348551708E-1,-8.991713744E-1,1.284434740E0
1.052253442E1,5.931967389E-1,9.310404539E-2,-1.133530701E0,1.282748060E0
1.053248642E1,5.195341008E-1,8.622479618E-2,-4.033877134E-1,6.633792616E-1
1.054243842E1,8.747531095E-1,1.798971909E-1,5.288315392E-1,1.037891516E0
1.055239042E1,1.156972189E0,4.186547935E-1,1.210395275E0,1.725952839E0
1.056234242E1,1.203507547E0,4.695840418E-1,1.174312107E0,1.745837482E0
1.057229542E1,8.013026523E-1,3.603352493E-1,6.115427434E-1,1.070472774E0
1.058224742E1,2.468813951E-1,2.594099683E-1,-2.340277898E-1,4.278001418E-1
1.059219942E1,-1.726021316E-2,1.500898397E-1,-7.392547041E-1,7.545345535E-1
1.060215142E1,3.219157169E-1,-9.770288050E-2,-2.605425739E-1,4.255091238E-1
1.061210442E1,7.526166151E-1,-4.311871308E-1,8.016836715E-1,1.181122695E0
1.062205642E1,9.534076618E-1,-5.300249559E-1,2.069724306E0,2.339587854E0
1.063200842E1,4.608159958E-1,-5.640528274E-1,2.706929895E0,2.803208239E0
1.064195967E1,-4.675447523E-1,-6.495028675E-1,1.845658418E0,2.011692587E0
1.065191167E1,-1.385876356E0,-3.017467332E-1,6.011311913E-1,1.540474951E0
1.066186467E1,-1.784111211E0,9.792039692E-2,-1.787376881E-2,1.786885751E0
1.067181667E1,-1.700353355E0,2.336868972E-1,-1.755129486E-1,1.725287191E0
1.068176867E1,-1.369093093E0,6.887072790E-1,1.395262599E-1,1.538896095E0
1.069172067E1,-1.043060534E0,6.024052995E-1,7.688930708E-1,1.429008040E0
1.070167267E1,-8.763243295E-1,9.401445687E-2,1.096656990E0,1.406925585E0
1.071162567E1,-1.073715513E0,-1.509049416E-1,1.610122631E0,1.941167739E0
1.072157767E1,-1.329252504E0,-3.864202631E-1,1.672075635E0,2.170730239E0
1.073152967E1,-1.383047912E0,-3.826517326E-1,1.443001022E0,2.035066540E0
1.074148167E1,-1.542399010E0,-2.062950307E-1,7.435097229E-1,1.724633020E0
1.075143467E1,-1.486685570E0,-1.206046700E-2,1.182225144E-1,1.491427505E0
1.076138667E1,-1.295225071E0,-7.272415996E-2,-3.973270744E-1,1.356748169E0
1.077133867E1,-1.100417773E0,-4.331646591E-1,-8.112725204E-1,1.434124820E0
1.078129067E1,-9.659519859E-1,-7.802027553E-1,-8.529169750E-1,1.506401986E0
1.079124267E1,-8.224505695E-1,-1.129634117E0,-5.716366661E-1,1.509724033E0
1.080119567E1,-5.417616333E-1,-1.353933309E0,-4.924870008E-1,1.539215553E0
1.081114767E1,-5.260191746E-2,-1.270409927E0,-1.017219642E0,1.628325564E0
1.082109967E1,5.077013829E-1,-8.083471584E-1,-2.309725612E0,2.499203518E0
1.083105167E1,1.404037369E0,5.394787341E-1,-2.930429773E0,3.293899952E0
1.084100367E1,2.920236614E0,2.433029941E0,-2.293388491E0,4.439262028E0
1.085095667E1,1.283016524E0,3.233276367E-2,-1.328146504E0,1.846929869E0
1.086090867E1,-4.495558664E-1,-9.174889469E-1,3.650851180E0,3.791121309E0
1.087086067E1,-1.064187402E0,-4.813369453E-2,4.104208029E0,4.240204620E0
1.088081267E1,-1.450550216E0,4.330699342E-1,2.312872583E0,2.764240417E0
1.089076567E1,-2.019844633E0,4.805276906E-1,2.027913791E0,2.902260076E0
1.090071767E1,-2.203444281E0,7.524144477E-1,3.175343324E0,3.937524530E0
1.091066967E1,-1.852184057E0,7.201436645E-1,3.576311460E0,4.091356295E0
1.092062167E1,-1.728124706E0,3.806502306E-1,2.769958202E0,3.286940528E0
1.093057367E1,-1.825761805E0,-1.818641943E-1,1.241354527E0,2.215274659E0
1.094052667E1,-1.644371235E0,-6.706007910E-1,3.824646217E-1,1.816574074E0
1.095047867E1,-1.540645430E0,-9.762365073E-1,6.127876157E-1,1.924093221E0
1.096043067E1,-1.481934122E0,-1.082092745E0,1.004256949E0,2.091790017E0
1.097038267E1,-6.142347284E-1,-1.436111248E-1,1.176714728E0,1.335127712E0
1.098033567E1,-7.251829411E-1,-4.264374375E-1,1.312247924E0,1.558760341E0
1.099028767E1,-4.404934862E-1,-5.599287862E-1,7.536406088E-1,1.037077106E0
1.100023967E1,7.812351543E-1,-3.507861614E-2,3.687815523E-1,8.646147749E-1
1.101019167E1,1.535014269E0,-2.727053672E-1,7.025593328E-1,1.710037029E0
1.102014367E1,1.629840027E0,-1.042973703E-1,7.140689921E-1,1.782456446E0
1.103009667E1,1.313274111E0,2.502491355E-1,2.681556487E-1,1.363532534E0
1.104004867E1,9.434616210E-1,7.437441963E-1,-2.343833005E-1,1.224014212E0
1.105000067E1,4.576451238E-1,8.296947581E-1,1.035389864E-1,9.531803463E-1
1.105995267E1,3.661310825E-2,8.813584167E-1,9.238659203E-2,8.869433244E-1
1.106990467E1,-1.504156027E-2,8.374803257E-1,3.184767866E-1,8.961177423E-1
1.107985767E1,-7.264533218E-2,7.170610124E-1,1.426277400E0,1.598036627E0
1.108980967E1,-2.109200138E-1,7.106904709E-1,1.487718773E0,1.662189924E0
1.109976167E1,-2.834247022E-1,9.572073287E-1,1.193799707E0,1.556191882E0
1.110971367E1,-6.393767690E-2,1.138517792E0,5.764652967E-1,1.277741377E0
1.111966567E1,3.440177900E-1,1.302805256E0,-7.640498221E-2,1.349624946E0
1.112961867E1,7.506785555E-1,1.309188076E0,-3.587354511E-1,1.551187557E0
1.113957067E1,1.244726032E0,1.011325064E0,-5.789795995E-1,1.705091979E0
1.114952267E1,1.743403042E0,4.740910757E-1,-5.389577472E-1,1.885389076E0
1.115947467E1,2.360246578E0,3.905121446E-1,-3.528543216E-1,2.418216247E0
1.116942767E1,2.786570141E0,4.308029687E-1,-3.987520409E-1,2.847730244E0
1.117937967E1,2.851879447E0,9.140917146E-1,-8.276102257E-1,3.107043406E0
1.118933167E1,2.615990196E0,1.368571229E0,-1.217613662E0,3.193583402E0
1.119928367E1,2.182724380E0,1.365706093E0,-1.369359434E0,2.916262010E0
1.120923567E1,1.920137327E0,1.538903545E0,-1.397789181E0,2.830011673E0
1.121918867E1,1.345484083E0,1.541979765E0,-1.671340055E0,2.642235151E0
1.122914067E1,7.693696189E-1,1.412909496E0,-1.679591061E0,2.325783521E0
1.123909267E1,5.492511857E-1,1.280788150E0,-1.641054987E0,2.152941388E0
1.124904467E1,4.420224600E-1,1.247720391E0,-2.202749047E0,2.569881981E0
1.125899667E1,7.585956855E-1,1.316250343E0,-2.911179569E0,3.283740073E0
1.126894967E1,1.087485778E0,1.116332871E0,-3.240960778E0,3.596199544E0
1.127890167E1,1.232780901E0,5.815465271E-1,-2.950298027E0,3.249954394E0
1.128885367E1,1.289584409E0,2.814235657E-1,-1.980077720E0,2.379692196E0
1.129880567E1,9.983727501E-1,2.785841578E-1,-2.166820246E-1,1.058918496E0
1.130875867E1,2.006385805E-1,2.821427733E-1,1.239963475E0,1.287388754E0
1.131871067E1,-5.531881160E-1,3.379100078E-1,1.272468731E0,1.428067554E0
1.132866267E1,-5.855758435E-1,9.484669107E-1,5.614818066E-1,1.248098701E0
1.133861467E1,-1.839816172E-1,1.307749076E0,-2.264918983E-1,1.339908752E0
1.134856667E1,1.899431460E-1,1.440444619E0,-1.113584679E-1,1.457175284E0
1.135851967E1,6.067888109E-1,1.794527441E0,3.922429204E-2,1.894745350E0
1.136847167E1,9.892307746E-1,1.965834487E0,1.538332272E-1,2.206070583E0
1.137842367E1,1.115801359E0,2.077463681E0,-1.289217496E-1,2.361670772E0
1.138837567E1,1.380464027E0,1.762589949E0,-7.461982727E-1,2.359918668E0
1.139832767E1,1.792545965E0,1.948854173E0,-6.496426159E-1,2.726405904E0
1.140828067E1,2.105977482E0,2.178215300E0,-4.703014952E-1,3.066096304E0
1.141823267E1,2.959895647E0,2.417559963E0,-6.454250193E-1,3.875842085E0
1.142818467E1,3.538786661E0,2.353344086E0,-1.479160788E0,4.499906227E0
1.143813667E1,3.295728139E0,1.669547299E0,-1.567601679E0,4.013301281E0
1.144808867E1,2.516522334E0,9.310796303E-1,-1.578654086E0,3.113188503E0
1.145804167E1,1.606014377E0,4.178209805E-1,-1.981160039E0,2.584347433E0
1.146799367E1,1.001885757E0,-1.349420428E-2,-2.491995603E0,2.685888912E0
1.147794567E1,9.541239457E-1,-2.803073323E-1,-2.673651636E0,2.852601931E0
1.148789767E1,9.388808392E-1,-6.263812226E-1,-2.546438443E0,2.785354450E0
1.149785067E1,1.424504963E0,-8.940480441E-1,-3.012158645E0,3.449874780E0
1.150780267E1,2.050567805E0,-9.613880879E-1,-3.462183166E0,4.137125530E0
1.151775467E1,2.494318117E0,-9.555771250E-1,-3.763914696E0,4.615387779E0
1.152770667E1,2.690030857E0,-8.308992845E-1,-3.974672906E0,4.870799148E0
1.153765867E1,2.524735625E0,-5.654462188E-1,-4.258618961E0,4.982956437E0
1.154761167E1,2.044231616E0,-4.008301413E-1,-4.103708677E0,4.602170423E0
1.155756367E1,1.929879373E0,-3.103865790E-1,-3.970457649E0,4.425529139E0
1.156751567E1,2.075379441E0,-1.678320462E-1,-3.984363497E0,4.495611182E0
1.157746767E1,2.419269689E0,1.707100457E-1,-3.657980690E0,4.388944118E0
1.158741967E1,3.033515600E0,4.553431481E-1,-2.810271830E0,4.160190144E0
1.159737267E1,3.456309345E0,8.774513072E-1,-1.315674977E0,3.800920379E0
1.160732467E1,3.598634082E0,1.334694800E0,7.022125930E-1,3.901881597E0
1.161727667E1,3.393331617E0,1.978781977E0,2.624931466E0,4.724462167E0
1.162722867E1,2.471481816E0,2.346688201E0,3.343503984E0,4.774325792E0
1.163718108E1,1.183356288E0,2.143431968E0,3.272694202E0,4.087194643E0
1.164713408E1,-2.632895228E-2,1.644780248E0,2.541785814E0,3.027650971E0
1.165708608E1,-1.016677897E0,9.948955572E-1,1.605425563E0,2.144957425E0
1.166703808E1,-1.374702619E0,5.221095800E-2,1.347490847E0,1.925685556E0
1.167699008E1,-1.611981753E0,8.650546253E-1,3.979882191E0,4.380213115E0
1.168694308E1,-3.083590278E0,1.480253633E0,4.245407177E0,5.451895259E0
1.169689508E1,-2.597824067E0,-1.384684986E-1,7.780626744E-1,2.715371969E0
1.170684708E1,-1.706127919E0,1.558625033E0,3.097119858E0,3.864238073E0
1.171679908E1,-1.447450168E0,1.331320957E0,2.473675107E0,3.160157593E0
1.172675108E1,-7.936500357E-1,1.145465453E0,1.778461046E0,2.259401509E0
1.173670408E1,-2.013589574E-1,1.030557725E0,9.196576792E-1,1.395838423E0
1.174665608E1,-2.791173508E-1,7.118757015E-1,2.469758642E-1,8.035363013E-1
1.175660808E1,-6.492324337E-1,4.478680676E-1,-2.392247951E-1,8.242069289E-1
1.176656008E1,-1.133550290E0,5.239765960E-1,-6.035115927E-1,1.386980164E0
1.177651208E1,-1.368367454E0,7.455287665E-1,-3.169173342E-1,1.590182136E0
1.178646508E1,-1.268835272E0,6.914338356E-1,1.083354574E-1,1.449054956E0
1.179641708E1,-9.303825691E-1,5.462287599E-1,6.132577318E-1,1.240992598E0
1.180636908E1,-5.244045391E-1,6.674275070E-1,1.186405903E0,1.458772965E0
1.181632108E1,-5.742513947E-1,8.792230135E-1,1.094042115E0,1.516484725E0
1.182627308E1,-8.281411529E-1,1.327428465E0,3.328322858E-1,1.599581642E0
1.183622608E1,-8.253328083E-1,1.111842794E0,-4.515097135E-1,1.456444185E0
1.184617808E1,-7.533896171E-1,7.689837027E-1,-7.315743864E-1,1.301588619E0
1.185613008E1,-6.002171984E-1,6.039676756E-1,-9.356223321E-1,1.265079755E0
1.186608208E1,-1.209791842E-1,5.601837248E-1,-9.228976214E-1,1.086361721E0
1.187603408E1,6.229364817E-1,9.193787670E-1,-1.048485289E0,1.527294529E0
1.188598708E1,1.036172441E0,1.190336986E0,-1.323786235E0,2.059845981E0
1.189593908E1,1.145640431E0,1.416158794E0,-1.304636604E0,2.240552252E0
1.190589108E1,1.171832668E0,1.786872266E0,-7.915516162E-1,2.278740498E0
1.191584308E1,1.206743250E0,2.109983556E0,-2.039871347E-1,2.439235665E0
1.192579608E1,6.453704940E-1,2.037209110E0,2.530581379E-1,2.151920643E0
1.193574808E1,-1.492737511E-2,1.931932915E0,6.240996391E-1,2.030292584E0
1.194570008E1,-5.677188123E-1,1.873584135E0,8.255695474E-1,2.124661676E0
1.195565208E1,-1.242366827E0,1.882187728E0,9.937758154E-1,2.464487035E0
1.196560408E1,-1.834336162E0,2.030037500E0,5.936666358E-1,2.799693104E0
1.197555708E1,-2.915681048E0,2.987384577E0,1.077768145E0,4.311292934E0
1.198550908E1,-3.978974995E0,3.614684397E0,3.601415895E0,6.470578162E0
1.199546108E1,-4.194528800E0,4.261103443E0,6.651718267E0,8.944072356E0
1.200541308E1,-4.072771059E0,5.761366832E0,8.314697388E0,1.090481566E1
1.201536508E1,-3.580310370E0,7.187222648E0,5.376194365E0,9.663242602E0
1.202531808E1,-2.035891293E0,7.699146963E0,2.425906863E0,8.325067053E0
1.203527008E1,-6.599518418E-2,7.343322256E0,2.126071585E0,7.645189174E0
1.204522208E1,1.161928874E0,6.069712733E0,2.313711659E0,6.598844824E0
1.205517408E1,2.073181473E0,4.395125134E0,3.834896386E-1,4.874655954E0
1.206512608E1,4.222558013E0,2.523488706E0,-1.407321897E0,5.116497468E0
1.207507908E1,7.251701649E0,9.640672821E-1,-3.162677085E-1,7.322337591E0
1.208503108E1,7.968688402E0,-5.412054169E-1,3.626879350E0,8.771952575E0
1.209498308E1,4.630248692E0,-1.323455282E0,7.429600262E0,8.853795620E0
1.210493508E1,-2.257214545E-1,1.538779584E0,9.620687038E-1,1.828761595E0
1.211488708E1,1.983924457E-1,5.207593410E0,-6.647915822E-1,5.253602244E0
1.212484008E1,5.647915500E-1,7.310502419E0,-2.862730710E0,7.871318964E0
1.213479208E1,-7.628393023E-1,6.789692091E0,-3.170679585E0,7.532267356E0
1.214474408E1,-2.790397144E0,5.102169281E0,-1.167604766E0,5.931420444E0
1.215469608E1,-2.719644080E0,2.660372609E0,9.811814976E-1,3.928964683E0
1.216464808E1,-1.043597674E0,7.509427035E-1,1.773630661E0,2.190611050E0
1.217460108E1,5.879945442E-1,-1.939400979E0,1.383637165E0,2.453867467E0
1.218455308E1,1.910126748E0,-3.456052360E0,4.316285956E-1,3.972302274E0
1.219450508E1,2.261490176E0,-2.653512656E0,1.728310062E0,3.891339474E0
1.220445708E1,2.041050292E0,3.405476868E-2,1.470170109E0,2.515640310E0
1.221441008E1,1.957554684E0,2.390252881E0,-4.748851275E-1,3.125835098E0
1.222436208E1,1.649779325E0,3.061796828E0,-1.195553872E0,3.677733092E0
1.223431408E1,1.067641937E0,2.426105084E0,-1.271436698E0,2.939795309E0
1.224426608E1,-1.521053932E-1,1.106182689E0,-2.214169829E0,2.479783100E0
1.225421808E1,-1.337034125E0,-7.998546624E-1,-2.627659192E0,3.054835603E0
1.226417108E1,-1.416288456E0,-2.575652302E0,-1.773086870E0,3.432738676E0
1.227412308E1,-4.861819482E-1,-3.952585634E0,-1.064810715E0,4.122272182E0
1.228407508E1,9.244172397E-1,-4.836087640E0,-1.924336213E0,5.286337177E0
1.229402708E1,2.136344412E0,-4.620074537E0,-2.188322797E0,5.540560697E0
1.230397908E1,3.492521444E0,-2.436086281E0,-1.254444689E0,4.439127604E0
1.231393208E1,4.591207125E0,2.791343808E-2,-1.928471364E0,4.979855804E0
1.232388408E1,4.637945967E0,1.423445594E0,-3.560023163E0,6.017516520E0
1.233383608E1,3.047215042E0,1.498448998E0,-4.436481613E0,5.586880884E0
1.234378808E1,8.328415103E-1,5.081230402E-1,-4.128181028E0,4.241897289E0
1.235374008E1,-6.388514332E-1,-4.274098295E-1,-3.621519500E0,3.702190406E0
1.236369308E1,-9.437286195E-1,-1.322593403E0,-3.562016771E0,3.915078607E0
1.237364508E1,-4.365455558E-1,-2.222504450E0,-3.198667867E0,3.919384413E0
1.238359708E1,4.250088166E-1,-3.295018871E0,-1.942835634E0,3.848687069E0
1.239354908E1,1.315353527E0,-4.020350186E0,-1.078525359E0,4.365385145E0
1.240350108E1,1.784827202E0,-4.081285774E0,-5.880498004E-1,4.493139691E0
1.241345408E1,1.894989915E0,-3.332281423E0,-9.923309684E-2,3.834701222E0
1.242340608E1,1.950954785E0,-2.084663942E0,-6.165982461E-1,2.921000124E0
1.243335808E1,1.629482177E0,-8.230072975E-1,-8.455114764E-1,2.011825747E0
1.244331008E1,9.370212784E-1,6.138214034E-1,-1.317798686E0,1.729560340E0
1.245326208E1,7.960006164E-1,1.905908713E0,-2.605177233E0,3.324613273E0
1.246321508E1,7.886373639E-1,2.737926570E0,-2.940137905E0,4.094215638E0
1.247316708E1,6.751094328E-1,3.112410327E0,-3.108137181E0,4.450099721E0
1.248311908E1,2.994711430E-1,2.436090374E0,-4.462274559E0,5.092751075E0
1.249307108E1,-1.482046974E-1,7.260341495E-1,-3.599847672E0,3.675322228E0
1.250302408E1,-3.494054876E-1,-7.517800248E-1,-1.322980489E0,1.561260636E0
1.251297608E1,-2.448761290E-1,-1.788300741E0,5.477852887E-1,1.886280091E0
1.252292808E1,-2.124685210E-1,-2.259373484E0,1.333078630E0,2.631921360E0
1.253288008E1,-2.929881889E-1,-2.194610308E0,1.972075220E0,2.965002050E0
1.254283208E1,-5.589373907E-1,-1.432255594E0,3.057262312E0,3.422078307E0
1.255278508E1,-1.430106449E0,-2.112885529E-1,3.608128499E0,3.886957496E0
1.256273708E1,-2.358020105E0,1.192144361E0,3.423326663E0,4.324422786E0
1.257268908E1,-3.841321014E0,1.395936198E0,2.009661123E0,4.554461859E0
1.258264108E1,-5.318794588E0,9.245260710E-1,3.503908896E-1,5.409907402E0
1.259259308E1,-5.899179858E0,8.497752661E-1,-5.541786343E-1,5.985779394E0
1.260254608E1,-5.450027157E0,7.871246892E-1,-1.890467386E0,5.822046739E0
1.261249808E1,-4.319970579E0,9.161885262E-1,-3.338919182E0,5.536237759E0
1.262245008E1,-2.700377212E0,3.420375574E-1,-4.279951943E0,5.072180538E0
1.263240208E1,-9.822467141E-1,-3.342440960E-1,-2.857076452E0,3.039640370E0
1.264235458E1,-7.930432409E-2,-8.331218112E-1,7.016892672E-1,1.092130466E0
1.265230758E1,-7.384529047E-1,-6.264864725E-1,3.724469964E0,3.848308005E0
1.266225958E1,-2.424744291E0,-1.154120794E0,3.550238725E0,4.451468823E0
1.267221158E1,-4.225931271E0,-1.714550394E0,2.054518037E0,5.001921884E0
1.268216358E1,-4.998753086E0,-1.535325341E0,7.982127643E-1,5.289792051E0
1.269211558E1,-4.879649104E0,-6.103054726E-1,2.614266729E-1,4.924610853E0
1.270206858E1,-4.098409638E0,1.463955104E0,1.027665693E-1,4.353238688E0
1.271202058E1,-2.246641902E0,3.525473135E0,4.033409357E-1,4.199886258E0
1.272197258E1,-2.713078827E-2,3.997498390E0,4.873215705E-1,4.027184099E0
1.273192458E1,8.657004502E-1,4.185253361E0,1.307783575E0,4.469460913E0
1.274187658E1,7.188024594E-1,4.354929619E0,1.758361827E0,4.751202509E0
1.275182958E1,1.319392052E-1,4.060515295E0,1.199187332E0,4.235946490E0
1.276178158E1,1.140184394E-1,2.692840444E0,-4.668229866E-1,2.735381794E0
1.277173358E1,1.457581054E0,9.595291118E-1,-2.637272015E0,3.162347597E0
1.278168558E1,3.570388230E0,-3.322304611E-1,-4.128872754E0,5.468604887E0
1.279163758E1,4.965594111E0,-3.614030971E-1,-3.709670661E0,6.208815788E0
1.280159058E1,5.489001773E0,-1.185981615E-1,-2.689419823E0,6.113606544E0
1.281154258E1,4.745985263E0,1.409541865E-1,-1.769972059E0,5.067252242E0
1.282149458E1,3.650328731E0,1.272039253E0,-1.022710177E0,3.998614737E0
1.283144658E1,2.497180329E0,2.430069788E0,-1.381160869E0,3.748166768E0
1.284139958E1,1.676214148E0,3.241970300E0,-2.553785470E0,4.454423141E0
1.285135158E1,1.777236493E0,3.411316775E0,-6.210175717E0,7.304925333E0
1.286130358E1,3.778090393E0,2.174300150E0,-1.254476615E1,1.328053862E1
1.287125558E1,3.780573121E0,2.093743791E0,-1.039730837E1,1.125968550E1
1.288120758E1,-2.702963436E0,5.630105612E0,3.541801777E0,7.179725647E0
1.289116058E1,-5.325297276E0,6.980322431E0,6.151415293E0,1.072024265E1
1.290111258E1,-7.226702464E-1,1.226627262E1,8.045023803E0,1.468693652E1
1.291106458E1,3.022125809E0,1.081738521E1,-3.664754105E-1,1.123758744E1
1.292101658E1,5.315469496E-1,1.175724063E0,-9.630501004E0,9.716553856E0
1.293096858E1,8.064370193E-1,-1.891418728E0,-5.540605205E0,5.909831767E0
1.294092158E1,1.069480374E0,-1.985396055E0,-1.810152955E0,2.891753704E0
1.295087358E1,-4.666449754E-1,-8.533129046E-1,-1.820451071E0,2.063962826E0
1.296082558E1,-2.781007977E0,9.829874832E-2,-2.439733774E0,3.700806521E0
1.297077758E1,-2.917473220E0,-1.840387738E-1,-5.902608665E0,6.586828472E0
1.298072958E1,-1.171166013E0,-6.882418406E-1,-7.008626463E0,7.139058170E0
1.299068258E1,7.594824158E-2,4.082599059E-1,-4.004314781E0,4.025789507E0
1.300063458E1,7.010852498E-1,1.116719810E0,-3.225953899E0,3.485019687E0
1.301058658E1,5.579425601E-1,9.562977943E-1,-1.827567717E0,2.136775405E0
1.302053858E1,-2.317105383E-2,2.646730471E-1,-7.713524097E-1,8.158267338E-1
1.303049058E1,-3.621568032E-1,-3.873034850E-1,-8.337310910E-1,9.880632934E-1
1.304044358E1,5.856823359E-1,5.443056107E-1,-3.492050743E-1,8.724887279E-1
1.305039558E1,4.080293794E-1,1.336332605E0,-8.162496704E-1,1.618189214E0
1.306034758E1,-7.142832195E-1,1.717987680E0,-1.722686210E0,2.535612345E0
1.307029958E1,-7.214535139E-1,1.924209328E0,-1.960611169E0,2.840259296E0
1.308025158E1,8.762849338E-2,2.582601133E-1,-3.562971622E-1,4.486922183E-1
1.309020458E1,9.312458374E-1,-1.751288158E0,1.442497576E0,2.452555459E0
1.310015658E1,2.056495127E0,-1.332358838E0,1.717607903E0,2.992411935E0
1.311010858E1,2.803267450E0,-1.291906923E0,-1.263899052E-1,3.089224224E0
1.312006058E1,2.676080277E0,-1.188810278E0,-2.538296780E0,3.875258194E0
1.313001258E1,1.278228239E0,8.326382464E-1,-3.423641828E0,3.748129833E0
1.313996558E1,-1.019785108E-1,2.574941280E0,-4.180208969E0,4.910689283E0
1.314991758E1,-2.459714587E-1,2.224389592E0,-5.422217215E0,5.865905773E0
1.315986958E1,9.182460152E-1,1.663604774E0,-5.844168668E0,6.145328633E0
1.316982158E1,2.562792521E0,1.780057336E0,-5.101651218E0,5.980247049E0
1.317977358E1,3.239306016E0,2.483785527E0,-3.930275583E0,5.666512169E0
1.318972658E1,2.248259096E0,2.916067257E0,-2.022648373E0,4.201097910E0
1.319967858E1,7.024634385E-1,2.677744102E0,-2.266146898E-1,2.777610948E0
1.320963058E1,-5.180659381E-1,2.245113879E0,1.206315672E-1,2.307266916E0
1.321958258E1,-9.283117045E-1,1.370420703E0,-7.145443708E-1,1.802883574E0
1.322953458E1,-5.024717794E-1,1.057032164E0,-1.069768569E0,1.585622804E0
1.323948758E1,2.991591210E-1,1.488654327E0,-4.612599456E-1,1.586930567E0
1.324943958E1,8.035274448E-1,2.026758381E0,4.618166006E-1,2.228605049E0
1.325939158E1,1.237220546E0,2.065228967E0,2.439970002E0,3.427730878E0
1.326934358E1,7.596208486E-1,2.536007010E0,3.447182134E0,4.346426124E0
1.327929558E1,-1.035660298E0,3.016145276E0,1.516763062E0,3.531330453E0
1.328924858E1,-3.084661488E0,3.270459396E0,-2.529856324E-1,4.502781683E0
1.329920058E1,-4.603770745E0,3.564076746E0,-1.528604844E0,6.019466828E0
1.330915258E1,-5.288922917E0,4.260844411E0,-2.098492607E0,7.108528114E0
1.331910458E1,-4.882266610E0,4.925851756E0,-1.793601242E0,7.163626748E0
1.332905658E1,-3.512079796E0,3.765782881E0,-1.579928779E0,5.386278878E0
1.333900958E1,-1.564296833E0,1.503164778E0,-1.002358943E0,2.389822667E0
1.334896158E1,8.345879274E-1,-5.734615821E-1,9.794320107E-2,1.017343632E0
1.335891358E1,3.348353664E0,-3.255651323E0,1.126451477E0,4.804126427E0
1.336886558E1,4.625104312E0,-2.913992665E0,1.252608079E0,5.608205608E0
1.337881758E1,4.322308588E0,-6.725128305E-1,8.056229407E-1,4.447881896E0
1.338877058E1,3.213267780E0,-4.843424141E-1,5.078254169E-1,3.289006545E0
1.339872258E1,8.838715500E-1,-1.821793592E-1,1.511411691E-1,9.150201576E-1
1.340867458E1,-1.317652944E0,-4.630176187E-1,-8.581361997E-1,1.639204787E0
1.341862658E1,-2.409985187E0,-7.492622137E-2,-1.446819254E0,2.811926118E0
1.342857858E1,-2.702165583E0,1.679328521E0,-1.469295951E0,3.504379219E0
1.343853158E1,-2.749174566E0,3.672120427E0,-1.566998831E0,4.847464756E0
1.344848358E1,-2.835247042E0,5.340314680E0,-2.395537010E0,6.503551664E0
1.345843558E1,-2.751223138E0,5.799687729E0,-3.509878904E0,7.316068373E0
1.346838758E1,-1.538831039E0,5.197232144E0,-4.096416029E0,6.794103856E0
1.347833958E1,1.050621496E-1,4.135309954E0,-3.928347756E0,5.704712312E0
1.348829258E1,1.323620612E0,3.821216825E0,-3.588365495E0,5.406480969E0
1.349824458E1,1.745817503E0,1.834204307E0,-1.730919090E0,3.067289535E0
1.350819658E1,1.946044293E0,4.087770921E-1,-7.485810131E-1,2.124749547E0
1.351814858E1,2.663404976E0,-1.258636558E-1,-8.400525159E-1,2.795577928E0
1.352810058E1,3.394562163E0,-2.854084432E-1,-1.583101478E0,3.756423904E0
1.353805358E1,3.367766128E0,-3.672525054E-1,-1.363333293E0,3.651766800E0
1.354800558E1,2.414633139E0,-3.259746712E-1,-6.147704065E-1,2.512897796E0
1.355795758E1,1.055066768E0,-9.422846496E-2,-2.699910897E-1,1.093133147E0
1.356790958E1,-1.958043036E-1,2.889647198E-1,-2.865539128E-1,4.516116468E-1
1.357786158E1,-1.144576311E0,6.146137011E-1,-4.507285255E-1,1.375122226E0
1.358781458E1,-1.759563576E0,7.315521669E-1,-7.409106356E-1,2.044549124E0
1.359776658E1,-1.925859413E0,7.988354927E-1,-9.635486341E-1,2.296845356E0
1.360771858E1,-1.733393193E0,9.576172185E-1,-1.166797850E0,2.298499494E0
1.361767058E1,-1.238025854E0,1.232783679E0,-1.155415660E0,2.094623823E0
1.362762258E1,-5.598793772E-1,1.663493677E0,-9.937886792E-1,2.017000761E0
1.363757483E1,-1.495246424E-1,1.904619402E0,-1.107901770E0,2.208478892E0
1.364752683E1,-2.963951559E-2,2.007594132E0,-1.369851769E0,2.430597986E0
1.365747883E1,-1.460110231E-1,2.073446059E0,-1.597961007E0,2.621827065E0
1.366743083E1,-3.447845062E-1,2.085830462E0,-1.666986219E0,2.692286784E0
1.367738283E1,-6.025658056E-1,2.045073615E0,-1.349898731E0,2.523417964E0
1.368733583E1,-7.615101571E-1,2.083771073E0,-8.953268301E-1,2.392406683E0
1.369728783E1,-8.751917238E-1,2.122089631E0,-6.563634056E-1,2.387475209E0
1.370723983E1,-1.160563768E0,1.920088795E0,-4.455537397E-1,2.287393140E0
1.371719183E1,-1.316560100E0,1.728886598E0,-7.068418336E-1,2.285170615E0
1.372714383E1,-1.458155104E0,1.539322205E0,-1.109905027E0,2.393244310E0
1.373709683E1,-1.683247910E0,1.401063037E0,-1.254175717E0,2.523738871E0
1.374704883E1,-1.918510778E0,1.479208735E0,-1.218290770E0,2.711636865E0
1.375700083E1,-1.881292373E0,1.562726271E0,-1.022379810E0,2.650780049E0
1.376695283E1,-1.750091818E0,1.591992170E0,-8.974002528E-1,2.530333506E0
1.377690483E1,-1.528570199E0,1.572618590E0,-8.479374862E-1,2.351309011E0
1.378685783E1,-1.165582726E0,1.506486581E0,-8.025736177E-1,2.066932345E0
1.379680983E1,-6.608140138E-1,1.306897137E0,-4.763176954E-1,1.539978518E0
1.380676183E1,-2.047852065E-1,8.890264553E-1,-3.674004400E-1,9.835080591E-1
1.381671383E1,3.116608426E-2,3.678430742E-1,-2.408976835E-1,4.408078334E-1
1.382666583E1,-7.982090732E-2,-2.280858493E-1,-3.760870636E-1,4.470302129E-1
1.383661883E1,-4.731440094E-1,-6.576135403E-1,-8.283750415E-1,1.158674256E0
1.384657083E1,-8.031881601E-1,-8.795124507E-1,-9.432412541E-1,1.519327955E0
1.385652283E1,-1.174964802E0,-1.094582983E0,-1.820976151E0,2.427881450E0
1.386647483E1,-1.539273819E0,-1.242784756E0,-3.019417378E0,3.609814281E0
1.387642683E1,-1.737854180E0,-1.360697953E0,-3.788579421E0,4.384628844E0
1.388637983E1,-1.759489024E0,-1.575494251E0,-3.975596766E0,4.624213815E0
1.389633183E1,-1.785217212E0,-1.923122916E0,-3.801076090E0,4.618829038E0
1.390628383E1,-1.970891013E0,-2.296693338E0,-3.402255052E0,4.553520738E0
1.391623583E1,-2.010512185E0,-2.646948572E0,-3.111936117E0,4.553311145E0
1.392618783E1,-1.836111084E0,-3.032452576E0,-2.739064438E0,4.479904746E0
1.393614083E1,-1.495107315E0,-3.487763565E0,-2.221363074E0,4.397077947E0
1.394609283E1,-1.092682711E0,-3.715943554E0,-1.787939383E0,4.266019133E0
1.395604483E1,-7.835019737E-1,-3.761867586E0,-1.741194402E0,4.218682380E0
1.396599683E1,-4.774697796E-1,-3.378228258E0,-1.511756676E0,3.731730404E0
1.397594883E1,-1.424398361E-1,-2.965910677E0,-1.517320887E0,3.334543136E0
1.398590183E1,8.561319569E-2,-2.635946451E0,-1.904148116E0,3.252894612E0
1.399585383E1,1.612191742E-1,-2.209277464E0,-2.196542813E0,3.119567095E0
1.400580583E1,1.097713509E-1,-1.664768370E0,-2.592681733E0,3.083099421E0
1.401575783E1,-3.132897947E-2,-1.318842999E0,-2.729328239E0,3.031428870E0
1.402570983E1,-2.331861928E-1,-1.244324913E0,-3.008693000E0,3.264192681E0
1.403566283E1,-1.356144726E-1,-1.135060918E0,-3.858583456E0,4.024353471E0
1.404561483E1,1.705147852E-1,-1.218587224E0,-4.061009384E0,4.243327389E0
1.405556683E1,-2.271828565E-1,-1.802982515E0,-2.968120925E0,3.480244219E0
1.406551883E1,-9.718980195E-1,-2.311278632E0,-4.149745560E-1,2.541416644E0
1.407547083E1,-1.058437834E0,-2.042913069E0,1.331494035E0,2.658319172E0
1.408542383E1,-3.712360673E-1,-1.448821340E0,1.283987746E0,1.971173261E0
1.409537583E1,5.469444591E-1,-9.888033432E-1,1.091343040E0,1.570958282E0
1.410532783E1,1.316868248E0,-5.443260759E-1,9.253657311E-1,1.699039315E0
1.411527983E1,1.278720574E0,-2.159435213E-2,1.879955846E-1,1.292646496E0
1.412523183E1,1.184529824E0,8.287013161E-1,-1.713927666E0,2.242187508E0
1.413518483E1,1.052202510E0,1.671618383E0,-2.850964943E0,3.468348201E0
1.414513683E1,4.872221678E-1,2.079750527E0,-2.265056393E0,3.113394957E0
1.415508883E1,8.132380620E-2,2.240658301E0,-1.550122012E0,2.725810235E0
1.416504083E1,1.983899606E-1,2.083828960E0,-5.755262339E-1,2.170928870E0
1.417499283E1,1.314202356E0,1.960163273E0,-2.590614742E-1,2.374127363E0
1.418494583E1,2.368249516E0,1.823495132E0,4.152154613E-1,3.017638836E0
1.419489783E1,2.601628265E0,1.467003842E0,1.460457299E0,3.324681252E0
1.420484983E1,2.473849939E0,1.055949844E0,2.031454865E0,3.370722839E0
1.421480183E1,1.849002733E0,1.097416543E0,2.530348660E0,3.320511785E0
1.422475383E1,9.870847003E-1,1.823805034E0,2.211871873E0,3.031992446E0
1.423470683E1,5.704914158E-1,2.767921616E0,1.651682886E0,3.273363238E0
1.424465883E1,7.616208156E-1,3.344586888E0,1.419111053E0,3.712169702E0
1.425461083E1,1.037552384E0,3.209247819E0,1.555047122E0,3.714021818E0
1.426456283E1,1.216050263E0,2.967754889E0,1.858552698E0,3.706826872E0
1.427451483E1,1.206862679E0,2.784374512E0,1.971253102E0,3.618714929E0
1.428446783E1,1.121283854E0,2.528926032E0,1.871188531E0,3.339774076E0
1.429441983E1,1.189675081E0,2.192938004E0,1.748192934E0,3.046388423E0
1.430437183E1,1.436344405E0,1.824162299E0,1.776998658E0,2.923760861E0
1.431432383E1,1.678776252E0,1.397912557E0,2.119064866E0,3.043498830E0
1.432427583E1,1.744887796E0,1.344131037E0,2.538520144E0,3.360863904E0
1.433422883E1,1.851638073E0,1.446410533E0,2.825364078E0,3.674690349E0
1.434418083E1,2.007770718E0,1.643186297E0,2.653685149E0,3.711232859E0
1.435413283E1,2.135777963E0,1.854805802E0,2.572591869E0,3.823621450E0
1.436408483E1,2.171264130E0,2.239311102E0,2.613774394E0,4.069486296E0
1.437403683E1,2.171350961E0,2.692487857E0,2.311978544E0,4.160468801E0
1.438398983E1,1.864116762E0,2.840966204E0,1.841819136E0,3.865012032E0
1.439394183E1,1.833817952E0,2.859779035E0,2.341392378E0,4.125935370E0
1.440389383E1,2.103789746E0,2.880992149E0,1.904304821E0,4.043813041E0
1.441384583E1,1.910823151E0,2.663240669E0,1.198763409E0,3.490147516E0
1.442379783E1,1.677251590E0,2.514341907E0,9.846734548E-1,3.178784349E0
1.443375083E1,1.419134442E0,2.668053512E0,5.214891905E-1,3.066659923E0
1.444370283E1,8.650900009E-1,2.974842884E0,1.760409522E-1,3.103072882E0
1.445365483E1,3.853813590E-1,3.189188946E0,2.333939517E-1,3.220856666E0
1.446360683E1,3.448056293E-1,3.295377306E0,1.889726543E-1,3.318751749E0
1.447355883E1,9.703455837E-1,3.428339481E0,8.363149756E-1,3.659850392E0
1.448351183E1,2.970504250E0,3.364905378E0,2.667709111E0,5.221413180E0
1.449346383E1,1.235830078E0,3.393101821E0,-1.239263563E0,3.817877699E0
1.450341583E1,9.042423722E-1,2.315100957E0,1.014743346E0,2.684595085E0
1.451336783E1,1.403801288E0,1.759162896E0,-7.743339050E-1,2.380106121E0
1.452331983E1,1.918820827E0,1.902144275E0,-1.022316660E0,2.888798636E0
1.453327283E1,2.030497968E0,2.176298583E0,2.405784255E-1,2.986147266E0
1.454322483E1,1.620418409E0,1.711124511E0,4.698097444E-1,2.403003143E0
1.455317683E1,1.266346404E0,1.090032095E0,3.418539548E-1,1.705481548E0
1.456312883E1,9.587182492E-1,1.059851106E0,6.162965298E-1,1.556356791E0
1.457308083E1,2.989888939E-1,1.447362460E0,7.282169151E-1,1.647589853E0
1.458303283E1,-3.289704922E-1,2.028092131E0,7.954727590E-1,2.203214966E0
1.459298583E1,-5.356473461E-1,2.312185535E0,7.872205836E-1,2.500567191E0
1.460293783E1,-4.838927633E-1,2.370641320E0,4.340622067E-1,2.458150214E0
1.461288983E1,1.593427661E-1,2.430338468E0,2.474108970E-1,2.448090549E0
1.462284183E1,1.066290645E0,2.614208257E0,-1.762625617E-1,2.828803465E0
1.463279383E1,1.898384516E0,2.988423042E0,-2.681661737E-1,3.550556174E0
1.464274871E1,1.954715422E0,3.009062544E0,3.184954977E-1,3.602333849E0
1.465270071E1,1.718127721E0,2.802535964E0,1.027962146E0,3.444252730E0
1.466265271E1,1.661605903E0,2.430791627E0,1.133029595E0,3.154906999E0
1.467260471E1,1.859462525E0,2.119453121E0,9.867597413E-1,2.987202236E0
1.468255671E1,1.897952699E0,1.854411115E0,8.903333080E-1,2.798885212E0
1.469250971E1,1.592271667E0,1.846850080E0,1.154952561E0,2.698165988E0
1.470246171E1,1.213030322E0,2.100102931E0,1.305417207E0,2.754267410E0
1.471241371E1,9.200944662E-1,2.096824982E0,1.340480036E0,2.653325377E0
1.472236571E1,7.688515556E-1,1.687275472E0,2.200599611E0,2.877615311E0
1.473231771E1,7.238393971E-1,1.318013279E0,3.016583233E0,3.370589989E0
1.474227071E1,7.630876628E-1,1.416992022E0,3.094662273E0,3.488137577E0
1.475222271E1,9.453444976E-1,1.825849221E0,2.933798354E0,3.582537421E0
1.476217471E1,1.374086030E0,2.402292883E0,1.987002577E0,3.406949186E0
1.477212671E1,2.007743821E0,2.919770883E0,8.746902519E-1,3.649819214E0
1.478207871E1,2.810944844E0,3.347848465E0,7.330595791E-2,4.372056041E0
1.479203171E1,3.209744248E0,3.514994048E0,-9.160008305E-1,4.847339354E0
1.480198371E1,3.445665366E0,3.290211291E0,-1.405341445E0,4.967200895E0
1.481193571E1,3.535852820E0,3.017590123E0,-1.448860517E0,4.869014491E0
1.482188771E1,3.352253465E0,2.695741248E0,-1.151848274E0,4.453243606E0
1.483183971E1,2.894867592E0,2.244351402E0,-6.943246990E-1,3.728197739E0
1.484179271E1,2.327085849E0,1.793139896E0,-2.600397134E-1,2.949288031E0
1.485174471E1,1.695273732E0,1.329641052E0,3.811261940E-1,2.187956931E0
1.486169671E1,1.369984501E0,1.152472172E0,9.026340955E-1,2.004943378E0
1.487164871E1,1.234639000E0,9.411929744E-1,1.344652024E0,2.053841947E0
1.488160071E1,1.243354568E0,6.507185036E-1,1.733652079E0,2.230451676E0
1.489155371E1,1.332522414E0,4.004722917E-1,2.022618552E0,2.454990804E0
1.490150571E1,1.462716225E0,2.151950777E-2,2.052548110E0,2.520507010E0
1.491145771E1,1.602066922E0,-3.678822505E-1,1.905574252E0,2.516578829E0
1.492140971E1,1.639256822E0,-6.844335490E-1,1.643440651E0,2.420022600E0
1.493136171E1,1.572208408E0,-7.024891663E-1,1.462487453E0,2.259247630E0
1.494131371E1,1.272647071E0,-7.442453027E-2,9.111996818E-1,1.566988972E0
1.495126671E1,1.077073642E0,6.694541520E-1,1.011819446E0,1.622354795E0
1.496121871E1,9.701986724E-1,1.508795062E0,2.022843378E0,2.703635207E0
1.497117071E1,1.049768095E0,2.377878419E0,2.402886083E0,3.539799479E0
1.498112271E1,8.907831050E-1,2.779191540E0,2.273865223E0,3.699711233E0
1.499107471E1,1.003051911E0,2.720231141E0,1.899453971E0,3.466077897E0
1.500102771E1,9.820725401E-1,2.201904709E0,1.837496874E0,3.031376847E0
1.501097971E1,1.090478895E0,1.991311390E0,1.585255008E0,2.769024867E0
1.502093171E1,6.108030707E-1,1.389738150E0,9.501813143E-1,1.790892807E0
1.503088371E1,5.544041906E-1,7.792870814E-1,4.017554632E-1,1.037333029E0
1.504083571E1,1.001624825E0,2.808060998E-1,7.237361938E-2,1.042757065E0
1.505078871E1,1.434565244E0,-3.437244791E-1,-6.051049590E-2,1.476409657E0
1.506074071E1,2.129607104E0,-1.060190830E0,-3.157414591E-1,2.399775756E0
1.507069271E1,2.711129073E0,-1.364713236E0,-4.126958960E-1,3.063165188E0
1.508064471E1,2.812805429E0,-1.577437280E0,-6.270729482E-1,3.285331526E0
1.509059671E1,2.513182696E0,-1.613262001E0,-1.007267096E0,3.151712004E0
1.510054971E1,2.142820934E0,-1.712218525E0,-7.790338969E-1,2.851362419E0
1.511050171E1,1.884114678E0,-1.980097016E0,-8.073619026E-1,2.850000974E0
1.512045371E1,1.593869418E0,-2.303279057E0,-7.098455483E-1,2.889531941E0
1.513040571E1,1.274617583E0,-2.505170549E0,-3.884498316E-1,2.837502905E0
1.514035771E1,9.767218262E-1,-2.888633291E0,2.672034296E-1,3.060977864E0
1.515031071E1,6.874779750E-1,-3.377476307E0,1.180159907E0,3.643178499E0
1.516026271E1,4.503105958E-1,-3.379274910E0,2.150645093E0,4.030825333E0
1.517021471E1,2.219633029E-1,-3.216070935E0,2.167710777E0,3.884758677E0
1.518016671E1,3.655262612E-2,-2.888972429E0,1.682084314E0,3.343187914E0
1.519011871E1,-2.428549659E-1,-2.436557567E0,1.116703584E0,2.691248447E0
1.520007171E1,-3.955931557E-1,-1.903094448E0,7.876380748E-1,2.097292578E0
1.521002371E1,-3.513199391E-1,-1.461927874E0,5.958552486E-1,1.617313292E0
1.521997571E1,-4.021505888E-1,-1.103600559E0,5.961432239E-1,1.317211461E0
1.522992771E1,-5.180771209E-1,-7.351254004E-1,6.376265877E-1,1.102443161E0
1.523987971E1,-3.853746347E-1,-2.879589987E-1,8.521176606E-1,9.785389627E-1
1.524983171E1,7.299773656E-2,2.988786739E-1,9.042759937E-1,9.551817649E-1
1.525978471E1,6.571383078E-1,6.580544204E-1,8.443174750E-1,1.256080560E0
1.526973671E1,1.295374906E0,6.239376712E-1,6.183462712E-1,1.565134651E0
1.527968871E1,1.927033533E0,2.768750167E-1,6.063942701E-2,1.947766709E0
1.528964071E1,2.261400567E0,-5.139942294E-1,-7.529953685E-1,2.438262623E0
1.529959271E1,2.034929426E0,-1.609691107E0,-3.347691759E-1,2.616125691E0
1.530954571E1,1.700636360E0,-2.075091466E0,1.424667662E0,3.037737080E0
1.531949771E1,1.583041398E0,-1.636394171E0,1.971064237E0,3.011461469E0
1.532944971E1,1.692089777E0,-1.104090555E0,1.244631161E0,2.373034027E0
1.533940171E1,1.644148310E0,-9.929262149E-1,4.423956585E-1,1.970999760E0
1.534935371E1,1.549451044E0,-1.191853169E0,-3.930206001E-2,1.955212819E0
1.535930671E1,1.491066158E0,-1.578185139E0,-2.451581110E-1,2.184959752E0
1.536925871E1,1.389768701E0,-1.979316412E0,-8.691008985E-2,2.420062782E0
1.537921071E1,1.238072632E0,-2.294103606E0,2.743044345E-1,2.621255065E0
1.538916271E1,1.038346874E0,-2.544538098E0,5.673027098E-1,2.806184372E0
1.539911471E1,7.581044463E-1,-2.671688726E0,9.523531164E-1,2.935918844E0
1.540906771E1,4.090538847E-1,-2.654370443E0,1.573835542E0,3.112870996E0
1.541901971E1,1.279039686E-1,-2.564340279E0,1.838414302E0,3.157842244E0
1.542897171E1,1.317187652E-2,-2.268433160E0,1.546086703E0,2.745240716E0
1.543892371E1,-1.262253061E-2,-1.962827849E0,1.211921837E0,2.306860861E0
1.544887571E1,9.898181275E-2,-1.625797262E0,1.313366497E0,2.092354103E0
1.545882871E1,2.363285230E-1,-1.303955988E0,1.647134191E0,2.114049061E0
1.546878071E1,3.755010264E-1,-1.102777271E0,1.720377145E0,2.077694937E0
1.547873271E1,5.894371985E-1,-9.141343993E-1,1.842006832E0,2.139174392E0
1.548868471E1,6.924000149E-1,-7.473642075E-1,1.929519185E0,2.181975097E0
1.549863671E1,4.582427824E-1,-6.205375153E-1,1.356208461E0,1.560241855E0
1.550858871E1,1.421354337E-1,-7.108138472E-1,7.841969153E-1,1.067906180E0
1.551854171E1,1.496119760E-2,-8.903514344E-1,5.828954798E-1,1.064291621E0
1.552849371E1,1.925141667E-1,-8.012404525E-1,6.544379175E-1,1.052300791E0
1.553844571E1,5.437974145E-1,-6.306017429E-1,1.001117579E0,1.302156133E0
1.554839771E1,8.105211532E-1,-6.997971082E-1,9.076942760E-1,1.403769722E0
1.555834971E1,9.322454189E-1,-9.622289175E-1,6.580824870E-1,1.492661573E0
1.556830271E1,8.838534236E-1,-1.183471770E0,5.250255499E-1,1.567626911E0
1.557825471E1,7.988773003E-1,-1.409649673E0,4.577469385E-1,1.683701102E0
1.558820671E1,6.967087550E-1,-1.621967336E0,5.223253423E-1,1.840925010E0
1.559815871E1,5.409447773E-1,-1.978710056E0,4.513933539E-1,2.100397747E0
1.560811071E1,3.637621562E-1,-2.682042391E0,4.051067948E-1,2.736747304E0
1.561806371E1,4.289998336E-1,-3.439326400E0,9.980951536E-1,3.606826982E0
1.562801571E1,7.579114151E-1,-3.659942431E0,1.623939017E0,4.075142481E0
1.563796771E1,1.098783038E0,-3.382474506E0,1.812761983E0,3.991812114E0
1.564791817E1,1.245852352E0,-2.745099934E0,1.481161705E0,3.358803615E0
1.565787017E1,1.201162960E0,-2.064627289E0,1.246992413E0,2.694525631E0
1.566782317E1,1.120437178E0,-1.459760896E0,1.022522482E0,2.105192050E0
1.567777517E1,9.707908492E-1,-1.021653001E0,8.681057024E-1,1.655239329E0
1.568772717E1,8.153164548E-1,-7.667190760E-1,9.617278111E-1,1.475642045E0
1.569767917E1,6.523228334E-1,-5.401903403E-1,1.363558996E0,1.605186537E0
1.570763117E1,5.199484491E-1,-1.701118755E-1,1.945673872E0,2.021121287E0
1.571758317E1,6.551455767E-1,3.410236502E-1,2.039939175E0,2.169530985E0
1.572753617E1,1.074397517E0,8.532075816E-1,1.588196157E0,2.098728243E0
1.573748817E1,1.548884449E0,1.172945028E0,1.058244292E0,2.212402327E0
1.574744017E1,1.932392360E0,1.455396534E0,8.493431568E-1,2.563923381E0
1.575739217E1,2.167961476E0,1.566993569E0,7.774715209E-1,2.785675461E0
1.576734417E1,2.142023812E0,1.538307713E0,7.721365213E-1,2.747881264E0
1.577729717E1,1.772484607E0,1.373240231E0,6.489227506E-1,2.334221744E0
1.578724917E1,1.274761571E0,1.229253715E0,7.530103520E-1,1.924345693E0
1.579720117E1,8.010372618E-1,1.203765117E0,8.315102454E-1,1.667968956E0
1.580715317E1,4.869388703E-1,1.142982726E0,9.106663426E-1,1.540400001E0
1.581710517E1,3.675719096E-1,1.017452361E0,1.109814322E0,1.549840716E0
1.582705817E1,3.655829792E-1,8.760824740E-1,1.257488165E0,1.575578592E0
1.583701017E1,3.063998012E-1,8.118186504E-1,1.296051722E0,1.559705236E0
1.584696217E1,3.994132148E-1,8.903134274E-1,1.124800662E0,1.489082081E0
1.585691417E1,4.223462869E-1,8.093429393E-1,6.100001018E-1,1.097958334E0
1.586686617E1,3.475700466E-1,5.038908255E-1,5.390533492E-2,6.145052371E-1
1.587681917E1,2.082360139E-1,4.564336538E-3,-1.389052125E-1,2.503552051E-1
1.588677117E1,1.387313309E-1,-5.430016816E-1,-7.793402910E-2,5.658364793E-1
1.589672317E1,1.109064782E-1,-1.075053282E0,4.479785800E-2,1.081686949E0
1.590667517E1,1.756538665E-1,-1.446221668E0,4.565716481E-1,1.526718397E0
1.591662717E1,1.712648003E-1,-1.620869229E0,4.912140620E-1,1.702304304E0
1.592657917E1,2.206470215E-1,-1.249075776E0,7.220711991E-2,1.270468130E0
1.593653217E1,3.860520346E-1,-4.639502496E-1,-8.997593120E-2,6.102308381E-1
1.594648417E1,2.962149748E-1,3.930855042E-1,-2.727177925E-1,5.627028694E-1
1.595643617E1,2.645388535E-1,1.311921650E0,-4.050119238E-1,1.398268171E0
1.596638817E1,5.588410579E-1,2.037509072E0,-6.834342599E-1,2.220546990E0
1.597634017E1,1.103692798E0,2.627925240E0,-1.253544949E0,3.113760396E0
1.598629317E1,1.582991258E0,2.712318689E0,-1.390199056E0,3.434412236E0
1.599624517E1,1.752521921E0,2.274290316E0,-1.121735698E0,3.082534752E0
1.600619717E1,9.456298417E-1,1.435852801E0,-1.640798879E-1,1.727081721E0
1.601614917E1,-3.281904736E-1,2.194805020E-1,5.937123171E-1,7.130042028E-1
1.602610117E1,-1.098962109E0,-6.940054411E-1,4.433967749E-1,1.373303305E0
1.603605417E1,-1.088620431E0,-9.933688492E-1,-9.434847906E-2,1.476745661E0
1.604600617E1,-9.272846411E-1,-6.959332681E-1,-1.718050830E-2,1.159515023E0
1.605595817E1,-1.142619760E0,1.860525548E-2,5.373918629E-1,1.262820686E0
1.606591017E1,-1.739403985E0,5.099883020E-2,1.189005721E0,2.107572468E0
1.607586217E1,-1.858673004E0,-3.303489733E-1,1.121196658E0,2.195649728E0
1.608581417E1,-1.235966464E0,-3.230528176E-2,-6.090342148E-1,1.378252302E0
1.609576717E1,-2.489352661E-1,6.893264991E-1,-3.173954026E0,3.257472018E0
1.610571917E1,-4.082211681E-1,-3.333053255E-1,-2.720169160E0,2.770750300E0
1.611567117E1,-1.143929755E0,-2.064092853E0,-5.666445326E-1,2.426961190E0
1.612562317E1,-9.799149176E-1,-3.013953740E0,2.184495648E-1,3.176770468E0
1.613557517E1,1.847279412E-1,-2.852879321E0,3.857572619E-1,2.884762295E0
1.614552817E1,7.906021746E-1,-3.062944052E0,5.840784446E-1,3.216803645E0
1.615548017E1,6.197300879E-1,-3.677412742E0,6.627433757E-1,3.787698330E0
1.616543217E1,3.156251726E-1,-3.739930587E0,3.556195430E-1,3.770035186E0
1.617538417E1,-2.022696613E-1,-3.295492496E0,3.195000494E-1,3.317116834E0
1.618533617E1,-6.989834681E-1,-2.707002400E0,7.787743536E-1,2.902228347E0
1.619528917E1,-1.221581364E0,-2.171614378E0,8.798434031E-1,2.642403158E0
1.620524117E1,-1.208573355E0,-1.744799210E0,8.597628220E-1,2.290014400E0
1.621519317E1,-6.721691604E-1,-1.346352979E0,9.575598427E-1,1.783647548E0
1.622514517E1,7.144274265E-2,-8.666339582E-1,8.904058135E-1,1.244580651E0
1.623509717E1,6.827832455E-1,-1.574117231E-1,4.868263844E-1,8.532123648E-1
1.624504917E1,8.281698773E-1,5.029605335E-1,2.342467681E-3,9.689376301E-1
1.625500217E1,6.390504579E-1,8.985164863E-1,3.110835671E-2,1.103034493E0
1.626495417E1,3.020757852E-1,8.604452652E-1,4.412508102E-1,1.013073596E0
1.627490617E1,1.309338496E-1,6.728086996E-1,1.194015470E0,1.376767286E0
1.628485817E1,2.941167015E-1,5.433449131E-1,1.311062694E0,1.449349411E0
1.629481017E1,6.356891128E-1,5.809349084E-1,7.297535634E-1,1.128772023E0
1.630476317E1,6.079370579E-1,5.681061172E-1,6.865929258E-1,1.078768684E0
1.631471517E1,4.431223212E-1,7.706735480E-1,8.129255283E-1,1.204633979E0
1.632466717E1,6.780896124E-1,9.561092216E-1,3.418516159E-1,1.220988490E0
1.633461917E1,1.108451263E0,1.172184305E0,-1.310033949E-1,1.618592641E0
