"Time (s)","Acceleration x (m/s^2)","Acceleration y (m/s^2)","Acceleration z (m/s^2)","Absolute acceleration (m/s^2)"
1.809999812E-4,-2.507735138E0,7.396419067E0,6.535110168E0,1.018348739E1
1.013399998E-2,-2.248324585E0,7.189249878E0,5.550457764E0,9.356701269E0
2.008699998E-2,-1.634451141E0,7.480544128E0,5.119653625E0,9.210907894E0
3.004099999E-2,-1.208137665E0,7.638316040E0,5.889652405E0,9.720672507E0
3.999399999E-2,-9.196875000E-1,7.889493713E0,6.497687988E0,1.026206048E1
4.994800000E-2,-1.109492798E0,8.263116760E0,6.988068237E0,1.087856473E1
5.990100000E-2,-1.737287292E0,8.451125793E0,7.570207672E0,1.147814177E1
6.985500001E-2,-2.337988129E0,8.512049103E0,7.629334717E0,1.166738688E1
7.980800001E-2,-2.292782135E0,8.200846252E0,7.043752441E0,1.105102609E1
8.976200002E-2,-1.813478851E0,7.608827362E0,6.089636536E0,9.912952764E0
9.971500002E-2,-1.527423706E0,8.178093567E0,5.292993164E0,9.860528089E0
1.096690000E-1,-1.855391693E0,8.424930267E0,4.990172882E0,9.966130329E0
1.196220000E-1,-2.071242828E0,7.788603516E0,5.164709930E0,9.572179493E0
1.295750000E-1,-1.474882965E0,7.805518341E0,5.414241028E0,9.613292997E0
1.395289999E-1,-1.139729919E0,8.072413330E0,5.473966827E0,9.819732893E0
1.494819999E-1,-1.052611084E0,7.699239349E0,5.235512695E0,9.369998390E0
1.594359999E-1,-9.205856323E-1,7.662415924E0,5.249583435E0,9.333714263E0
1.693889999E-1,-5.730084229E-1,7.413483582E0,5.274731140E0,9.116516115E0
1.793429999E-1,2.148033142E-1,7.126230927E0,5.445376282E0,8.971144327E0
1.892959999E-1,1.193019104E0,6.748715973E0,5.818699951E0,8.990313175E0
1.992499999E-1,1.728455658E0,5.959706726E0,6.506070557E0,8.990807378E0
2.092029999E-1,2.021845551E0,5.347030792E0,6.618337097E0,8.745340683E0
2.191570000E-1,1.100062408E0,5.292693787E0,7.455097046E0,9.208757614E0
2.291100000E-1,8.837622070E-1,6.190826111E0,6.982080688E0,9.373196590E0
2.390630000E-1,3.101550293E-1,5.835165710E0,6.539301453E0,8.769710286E0
2.490170000E-1,8.563691711E-1,5.172044678E0,6.999145203E0,8.744795474E0
2.589700000E-1,2.126178589E0,5.732179871E0,5.104834442E0,7.964788518E0
2.689240000E-1,1.484163666E0,5.962850189E0,5.486241302E0,8.237546224E0
2.788770000E-1,-3.492237854E-1,5.507048035E0,5.984105988E0,8.139966817E0
2.888310000E-1,1.554517365E0,6.088588715E0,5.324427795E0,8.236320059E0
2.987840000E-1,1.497785339E0,6.502777405E0,5.765410767E0,8.818698102E0
3.087380000E-1,2.646496582E-1,6.564000092E0,6.377338257E0,9.155685659E0
3.186910000E-1,-4.954696655E-1,7.261848907E0,6.722071381E0,9.907884910E0
3.286450000E-1,-1.572779388E0,7.567812653E0,7.299869843E0,1.063172249E1
3.385985000E-1,-1.650467834E0,6.755601654E0,7.884404297E0,1.051313602E1
3.485515000E-1,-1.237177277E0,6.496490479E0,8.189769287E0,1.052650546E1
3.585055000E-1,-8.608598328E-1,6.277944946E0,8.582552490E0,1.066835881E1
3.684585000E-1,-4.872367859E-1,5.878874817E0,8.982820129E0,1.074660999E1
3.784125000E-1,-2.710862732E-1,5.928122406E0,9.379046173E0,1.109876706E1
3.883655000E-1,-1.679507446E-1,6.031108246E0,9.492061157E0,1.124729741E1
3.983195000E-1,-1.137634277E-2,5.946683807E0,9.313931580E0,1.105045244E1
4.082725000E-1,2.218386841E-1,5.829926605E0,9.008267212E0,1.073248037E1
4.182264999E-1,2.758763123E-1,5.558540955E0,9.057814178E0,1.063096811E1
4.281794999E-1,-1.505868530E-1,5.430856476E0,8.882977753E0,1.041269284E1
4.381334999E-1,-9.955796814E-1,5.675896912E0,8.532257080E0,1.029594073E1
4.480864999E-1,-2.032922516E0,6.234086151E0,8.469986572E0,1.071154875E1
4.580404999E-1,-2.542013855E0,6.784641266E0,8.169411621E0,1.091936252E1
4.679934999E-1,-1.718725891E0,6.619983673E0,7.960895233E0,1.049543022E1
4.779464999E-1,-2.344125366E-1,5.873486023E0,8.363408203E0,1.022249402E1
4.879005000E-1,3.987707520E-1,5.425467682E0,8.637787628E0,1.020813856E1
4.978535000E-1,-1.151106262E-1,5.428012390E0,8.780740356E0,1.032366070E1
5.078075000E-1,-1.138083344E0,5.571264496E0,8.703950043E0,1.039677681E1
5.177605000E-1,-1.514251099E0,5.544170837E0,8.292904816E0,1.008975009E1
5.277145000E-1,-1.358574829E0,5.558990021E0,8.225544891E0,1.002036349E1
5.376675000E-1,-1.002914429E0,5.711672516E0,8.465795288E0,1.026151695E1
5.476215000E-1,-3.619473267E-1,5.887257385E0,8.799601135E0,1.059357284E1
5.575745000E-1,2.200424194E-1,6.044430542E0,8.963659973E0,1.081345270E1
5.675285000E-1,3.047662354E-1,6.336323547E0,9.005273438E0,1.101529973E1
5.774815000E-1,-5.149291992E-2,6.632707214E0,8.806337128E0,1.102483697E1
5.874345000E-1,-3.481759644E-1,6.634054413E0,8.459059296E0,1.075581650E1
5.973885000E-1,-7.023394775E-1,6.482569427E0,8.121062164E0,1.041482779E1
6.073415000E-1,-6.632707214E-1,6.081553345E0,7.957452393E0,1.003724403E1
6.172955000E-1,-6.960525513E-2,5.605842590E0,8.237070923E0,9.963917574E0
6.272485000E-1,3.071612549E-1,5.577401733E0,8.565937042E0,1.022629139E1
6.372025000E-1,3.749702454E-1,5.950725403E0,8.894503784E0,1.070812463E1
6.471555000E-1,5.221142578E-1,6.275100861E0,8.934320984E0,1.093030583E1
6.571095000E-1,7.310797119E-1,6.305487671E0,8.799152069E0,1.084982624E1
6.670625000E-1,7.599696350E-1,6.425088959E0,8.593479767E0,1.075672889E1
6.770164999E-1,6.923103333E-1,6.735243988E0,8.131240997E0,1.058110983E1
6.869694999E-1,6.233038330E-1,7.605833588E0,8.006699982E0,1.106094285E1
6.969224999E-1,3.728746033E-1,7.694000244E0,6.910080414E0,1.034823108E1
7.068764999E-1,-4.388873291E-1,7.528594208E0,5.547014923E0,9.361716049E0
7.168294999E-1,2.095642090E-1,8.484955444E0,4.260140991E0,9.496693494E0
7.267834999E-1,1.838327179E0,9.016051025E0,5.608237610E0,1.077594321E1
7.367364999E-1,3.431464233E0,8.797505493E0,7.337292023E0,1.195854941E1
7.466904999E-1,4.655169525E0,8.570278015E0,8.575217743E0,1.298670966E1
7.566434999E-1,4.918471985E0,8.528514862E0,9.966275024E0,1.400905315E1
7.665975000E-1,4.602628784E0,8.498128052E0,1.076127182E1,1.446400163E1
7.765505000E-1,4.572691040E0,8.294551392E0,1.137888748E1,1.480500478E1
7.865045000E-1,4.243675232E0,8.107141113E0,1.213212112E1,1.519614686E1
7.964575000E-1,3.476819916E0,8.129444733E0,1.299552567E1,1.571813716E1
8.064105000E-1,2.632276154E0,8.043224030E0,1.347378113E1,1.591116301E1
8.163645000E-1,1.718875580E0,7.626939697E0,1.332364334E1,1.544811362E1
8.263175000E-1,6.938072205E-1,6.917564850E0,1.275572433E1,1.452730447E1
8.362715000E-1,-3.559597778E-1,6.011199646E0,1.200638260E1,1.343184469E1
8.462245000E-1,-1.244362335E0,4.899162140E0,1.097382980E1,1.208201837E1
8.561785000E-1,-2.089355164E0,3.764072571E0,9.853110352E0,1.075255462E1
8.661315000E-1,-3.177442474E0,2.862647095E0,9.085207214E0,1.004150781E1
8.760855000E-1,-4.176764374E0,2.171384583E0,8.497080231E0,9.713940708E0
8.860385000E-1,-4.602778473E0,1.454824677E0,7.849377136E0,9.214923002E0
8.959925000E-1,-4.924010468E0,5.656736755E-1,7.657775574E0,9.121808622E0
9.059455000E-1,-5.286855927E0,-2.068698120E-1,7.899672546E0,9.507810844E0
9.158985000E-1,-5.655389557E0,-6.614744568E-1,7.967481537E0,9.792943456E0
9.258525000E-1,-5.923332367E0,-8.740324402E-1,8.161627808E0,1.012234990E1
9.358055000E-1,-6.019133148E0,-8.873547363E-1,8.453221436E0,1.041510033E1
9.457595000E-1,-6.040089569E0,-7.670050049E-1,8.679999847E0,1.060251744E1
9.557125000E-1,-6.192322998E0,-6.420149231E-1,8.450976105E0,1.049647771E1
9.656664999E-1,-6.255042572E0,-5.658233643E-1,7.784561920E0,1.000225564E1
9.756194999E-1,-6.323450317E0,-5.809419250E-1,7.208410034E0,9.606492214E0
9.855734999E-1,-6.541247406E0,-5.032534790E-1,7.016808472E0,9.606080513E0
9.955264999E-1,-6.744973755E0,-2.246827698E-1,6.812333679E0,9.589214955E0
1.005480500E0,-6.946305084E0,1.136137390E-1,6.630611572E0,9.603596838E0
1.015433500E0,-6.964267731E0,4.653822327E-1,6.396797791E0,9.467662205E0
1.025387500E0,-6.959028625E0,9.542655945E-1,6.209537201E0,9.375342900E0
1.035340500E0,-6.926995239E0,1.604663086E0,5.911806335E0,9.247035244E0
1.045293500E0,-6.951993256E0,2.032323761E0,5.422024841E0,9.047591032E0
1.055247500E0,-7.011719055E0,2.472707977E0,5.228028259E0,9.089046613E0
1.065200500E0,-7.106472015E0,3.053799591E0,5.162015533E0,9.299141940E0
1.075154500E0,-7.147486725E0,3.334765320E0,5.248685303E0,9.473960293E0
1.085107500E0,-7.100783844E0,3.308270416E0,5.316793671E0,9.467527622E0
1.095061500E0,-6.935826874E0,3.077600098E0,5.225034485E0,9.212942101E0
1.105014500E0,-6.796616364E0,2.750979309E0,5.215903473E0,8.998195941E0
1.114968500E0,-6.776707764E0,2.353406067E0,5.433999939E0,8.999480183E0
1.124921500E0,-6.722520447E0,1.842368774E0,5.746999054E0,9.034080030E0
1.134875500E0,-6.704108734E0,1.315913544E0,5.841602325E0,8.988938764E0
1.144828500E0,-6.772965546E0,9.759704590E-1,5.724246368E0,8.921467206E0
1.154781500E0,-6.975644073E0,9.077124023E-1,5.788762207E0,9.110066956E0
1.164735500E0,-6.896159363E0,1.024768982E0,6.277196503E0,9.381383766E0
1.174688500E0,-6.744225311E0,1.308878174E0,6.826404419E0,9.684912721E0
1.184642500E0,-6.466552734E0,1.620230713E0,7.087012482E0,9.729706971E0
1.194595500E0,-5.959107971E0,1.932481384E0,7.186705170E0,9.533844099E0
1.204549500E0,-5.713019714E0,2.217039642E0,7.172035675E0,9.433554725E0
1.214502500E0,-5.374274139E0,2.504891052E0,7.002138977E0,9.175361135E0
1.224456500E0,-4.927153931E0,2.834954681E0,6.846163330E0,8.898526071E0
1.234409500E0,-4.957690430E0,3.351380768E0,6.852899323E0,9.097949031E0
1.244363500E0,-4.947511597E0,4.130959625E0,7.060218201E0,9.559779258E0
1.254316500E0,-4.568350067E0,4.963228912E0,7.072193298E0,9.773401743E0
1.264270500E0,-4.487518158E0,5.753735046E0,6.899751892E0,1.004240322E1
1.274223500E0,-4.688550110E0,6.298302612E0,6.313720551E0,1.007542481E1
1.284176500E0,-4.819378052E0,6.445147247E0,5.416186981E0,9.700588088E0
1.294130500E0,-4.808750153E0,6.171216888E0,4.663552094E0,9.108057644E0
1.304083500E0,-4.481979675E0,5.608986053E0,4.030069427E0,8.233488079E0
1.314037500E0,-4.245770874E0,4.993466034E0,3.744762726E0,7.548809258E0
1.323990500E0,-4.260739746E0,4.193978577E0,3.828738098E0,7.099478496E0
1.333944500E0,-3.844006348E0,3.518283691E0,4.369114380E0,6.800284215E0
1.343897125E0,-3.525768127E0,3.416944427E0,5.584137726E0,7.435667035E0
1.353851125E0,-2.782264252E0,3.354973297E0,6.688391418E0,7.983196099E0
1.363804125E0,-2.350711670E0,3.519630890E0,6.870113525E0,8.069207322E0
1.373758125E0,-2.511028290E0,4.094285889E0,6.039490814E0,7.716468707E0
1.383711125E0,-2.562670898E0,4.794978790E0,4.550537109E0,7.089886580E0
1.393664125E0,-2.503843231E0,5.323080597E0,2.949017487E0,6.580358813E0
1.403618125E0,-2.544109497E0,5.425018616E0,1.782942352E0,6.251576085E0
1.413571125E0,-2.749482422E0,5.595963135E0,1.472038879E0,6.406352742E0
1.423525125E0,-3.065625000E0,6.446045380E0,1.894610138E0,7.385059597E0
1.433478125E0,-2.788551178E0,7.396868134E0,3.712429962E0,8.733373465E0
1.443432125E0,-1.661694489E0,7.677983551E0,5.381010132E0,9.521970911E0
1.453385125E0,-1.206341400E0,7.820636902E0,5.731581116E0,9.770805658E0
1.463339125E0,-1.374292145E0,7.899373169E0,5.126239929E0,9.516675426E0
1.473292125E0,-1.324296112E0,7.855664063E0,3.442092133E0,8.678318749E0
1.483246125E0,-1.508562927E0,8.943601685E0,9.861492920E-1,9.123391016E0
1.493199125E0,-1.193318481E0,1.162512543E1,-1.368154907E0,1.176602728E1
1.503152125E0,-2.073188782E-1,1.049796936E1,1.464853821E0,1.060170451E1
1.513106125E0,-9.551637268E-1,8.694669342E0,4.419110413E0,9.799905589E0
1.523059125E0,-9.857002258E-1,8.401728516E0,6.305337982E0,1.055073145E1
1.533013125E0,-3.209326172E-1,1.089135132E1,9.279802551E0,1.431220691E1
1.542966125E0,1.086141357E0,1.443478271E1,4.258045349E0,1.508885699E1
1.552920125E0,1.616787872E0,1.731748810E1,4.941224670E-1,1.739981477E1
1.562873125E0,1.099613342E0,1.504551270E1,1.484163666E0,1.515847431E1
1.572827125E0,1.106349335E0,1.340462494E1,9.026229858E-1,1.348045648E1
1.582780125E0,1.149010620E0,1.547392181E1,2.331850891E0,1.569076194E1
1.592734125E0,2.841091919E0,1.301752991E1,2.837050323E0,1.362265549E1
1.602687125E0,1.538201294E0,1.134954849E1,5.226681061E0,1.258953967E1
1.612640125E0,-3.472778320E-1,1.120195541E1,3.927083588E0,1.187545336E1
1.622594125E0,-1.112187195E-1,1.035471725E1,1.954485626E0,1.053814752E1
1.632547125E0,-2.359094238E-1,9.701026611E0,4.319866791E0,1.062199697E1
1.642501125E0,-4.697232056E-1,9.907447357E0,5.652844849E0,1.141633951E1
1.652454125E0,-4.144880676E-1,1.031220566E1,6.345753937E0,1.211536128E1
1.662408125E0,-7.363188171E-1,1.052790710E1,5.359005890E0,1.183629746E1
1.672361125E0,-1.022673340E0,8.958420868E0,3.532504120E0,9.683891292E0
1.682315125E0,7.315287781E-1,-3.766467590E0,1.199904785E0,4.020097506E0
1.692268125E0,-2.800077209E0,-6.162235565E0,6.185137939E0,9.168942735E0
1.702222125E0,-2.776725769E0,-3.203338623E-1,1.515583328E1,1.541142765E1
1.712175125E0,-7.864645386E-1,6.056106262E0,-6.081852722E-1,6.137168635E0
1.722128125E0,-2.918331299E0,1.076351715E1,1.023152344E1,1.513453108E1
1.732082125E0,-3.035088501E0,1.691901672E1,8.861572266E-1,1.721191923E1
1.742035125E0,-3.559298401E0,1.797312469E1,5.627248077E0,1.916683952E1
1.751989125E0,-3.400478668E0,1.780337769E1,-6.286926270E-3,1.812521867E1
1.761942125E0,-4.265529785E0,1.338845856E1,4.378694458E0,1.471796630E1
1.771896125E0,-3.603157196E0,9.266480255E0,2.335593109E0,1.021300119E1
1.781849125E0,-3.894301758E0,6.340365143E0,4.536166992E0,8.714506716E0
1.791803125E0,-2.094594269E0,5.242548065E0,4.989574127E0,7.534420040E0
1.801756125E0,-1.226549377E0,4.895270233E0,5.319488068E0,7.332465297E0
1.811710125E0,-1.234033813E0,5.429808655E0,3.692072296E0,6.681097164E0
1.821663125E0,-1.816921692E0,5.710475006E0,3.166215820E0,6.777584514E0
1.831616125E0,-1.070424042E0,5.717809753E0,2.174078979E0,6.210134895E0
1.841570125E0,-5.885760498E-1,5.954018555E0,3.332370300E0,6.848463370E0
1.851523125E0,8.982820129E-1,9.064250793E0,2.191742249E0,9.368633150E0
1.861477125E0,1.755848694E0,1.233105743E1,-1.528321838E0,1.254885452E1
1.871430125E0,1.739233246E0,1.407672729E1,-2.261347504E0,1.436289929E1
1.881384125E0,2.128723297E0,1.423704391E1,-3.331172791E0,1.477570961E1
1.891337125E0,3.432961121E0,1.416938461E1,-4.518204346E0,1.526338275E1
1.901291125E0,4.028422852E0,1.419812485E1,-3.761078796E0,1.523025455E1
1.911244125E0,3.645668793E0,1.371957001E1,-1.851799164E0,1.431595831E1
1.921198125E0,3.042722626E0,1.318338501E1,1.619631958E-1,1.353092877E1
1.931151125E0,1.855242004E0,1.193752579E1,1.288370819E0,1.214933513E1
1.941104125E0,1.270408173E0,1.103205872E1,1.194366302E0,1.116900924E1
1.951058125E0,5.962101746E-1,1.102652023E1,1.020727386E0,1.108970240E1
1.961011125E0,1.275048523E0,1.141705811E1,9.139993286E-1,1.152433769E1
1.970965125E0,2.954406281E0,1.125060425E1,1.877845001E0,1.178265311E1
1.980918125E0,2.676883392E0,1.153531219E1,6.809339905E-1,1.186139972E1
1.990872125E0,6.759942627E-1,1.117141891E1,-4.310286713E0,1.199317057E1
2.000825125E0,-1.763183441E0,9.809550934E0,-5.065166931E0,1.117998307E1
2.010779125E0,-3.052003326E0,8.735384674E0,-8.152047729E-1,9.289038084E0
2.020732125E0,-1.822460175E0,9.289831696E0,2.015558624E0,9.679091413E0
2.030686125E0,3.841012573E-1,8.905880127E0,1.498384094E0,9.039213987E0
2.040639125E0,1.597178650E0,9.238638153E0,1.002914429E0,9.429170266E0
2.050592125E0,2.231110382E0,9.724976807E0,-3.103047180E-1,9.982450423E0
2.060546125E0,3.252735901E-1,9.370214539E0,-7.572752380E-1,9.406390870E0
2.070499125E0,-1.290616150E0,9.272767181E0,2.500250702E0,9.690260823E0
2.080453125E0,-1.200054474E0,9.154363403E0,4.665498047E0,1.034453344E1
2.090406125E0,-6.873706055E-1,8.790021057E0,3.748654633E0,9.580676390E0
2.100360125E0,-1.227447510E-2,8.970845032E0,2.426304474E0,9.293178393E0
2.110313125E0,9.015751648E-1,9.547296295E0,1.579964447E0,9.719053039E0
2.120267125E0,1.541045380E0,1.022733215E1,5.632786560E-1,1.035810922E1
2.130220125E0,1.759141846E0,1.076905563E1,-1.916015625E-1,1.091347105E1
2.140173125E0,2.182910614E0,1.096769257E1,-4.357438660E-1,1.119130250E1
2.150127125E0,2.821482697E0,1.081605789E1,-4.876858521E-1,1.118864203E1
2.160080125E0,3.380121002E0,1.073163345E1,-3.635939026E-1,1.125723657E1
2.170034125E0,3.315006409E0,1.052551208E1,-5.944139099E-1,1.105119903E1
2.179987125E0,2.746189270E0,1.035247192E1,-8.897497559E-1,1.074741295E1
2.189941125E0,2.499202881E0,1.049752029E1,-8.966354370E-1,1.082810706E1
2.199894125E0,2.313439178E0,1.045081741E1,-1.454974365E-1,1.070480056E1
2.209848125E0,1.897454224E0,9.362281036E0,3.876937866E-1,9.560488754E0
2.219801125E0,2.054178314E0,9.366023254E0,1.205293579E0,9.664097100E0
2.229755125E0,2.104174347E0,9.528734894E0,1.661694489E0,9.898765930E0
2.239708125E0,2.484982452E0,9.345066833E0,2.243983612E0,9.926775628E0
2.249661125E0,2.459086304E0,1.004935226E1,9.026229858E-1,1.038514875E1
2.259615125E0,1.687141571E0,1.094074860E1,6.093827820E-1,1.108682885E1
2.269568125E0,1.064885559E0,1.043016037E1,1.828298035E0,1.064259838E1
2.279522125E0,8.616082764E-1,9.323062592E0,2.096839600E0,9.594717360E0
2.289475125E0,8.110134888E-1,9.333989868E0,1.208137665E0,9.446729929E0
2.299429125E0,7.725434875E-1,9.490564270E0,3.435356140E-1,9.528150415E0
2.309382125E0,2.987786865E-1,1.037477554E1,-1.190923462E0,1.044717833E1
2.319336125E0,6.695576477E-1,1.083342178E1,-1.438957672E0,1.094906088E1
2.329289125E0,1.215322723E0,9.133257294E0,-8.211923218E-1,9.250284047E0
2.339244667E0,9.330097961E-1,1.053449341E1,-2.456391907E-1,1.057858201E1
2.349197667E0,1.746567993E0,1.110121490E1,1.063089294E0,1.128794184E1
2.359150667E0,1.866019592E0,1.027478348E1,2.364033966E0,1.070709397E1
2.369104667E0,2.295925598E0,9.616602173E0,2.759661255E0,1.026479624E1
2.379057667E0,2.725681915E0,7.983797607E0,2.763104095E0,8.877224250E0
2.389011667E0,2.066752167E0,7.005132751E0,3.002306671E0,7.896657187E0
2.398964667E0,1.648372192E0,7.081324310E0,2.187700653E0,7.592649012E0
2.408918667E0,1.728455658E0,8.707692261E0,1.936972046E0,9.086436275E0
2.418871667E0,9.409432983E-1,1.103310654E1,3.381019135E0,1.157782814E1
2.428825667E0,-4.962181091E-1,1.132619705E1,3.581003265E0,1.188917812E1
2.438778667E0,-1.522483978E0,1.089359665E1,2.002685394E0,1.118030206E1
2.448731667E0,-1.149459686E0,1.021116577E1,1.661544800E0,1.040912557E1
2.458685667E0,3.378474426E-1,8.330177307E0,1.461261292E0,8.464117167E0
2.468638667E0,1.133892059E0,8.777596893E0,2.012265472E0,9.076405167E0
2.478592667E0,1.314865723E0,9.515412598E0,2.503992920E0,9.926828764E0
2.488545667E0,9.190887451E-1,1.009380981E1,4.029620361E-1,1.014357428E1
2.498499667E0,-4.011657715E-1,1.094553864E1,-3.189866638E-1,1.095753177E1
2.508452667E0,-7.059320068E-1,1.069690567E1,-1.309476929E0,1.079985466E1
2.518406667E0,3.796105957E-1,9.826016693E0,-1.394649811E0,9.931754948E0
2.528359667E0,8.122109985E-1,9.883497162E0,-1.577120361E0,1.004143971E1
2.538313667E0,-6.348298645E-1,1.041025177E1,-1.531914368E0,1.054149479E1
2.548266667E0,-1.346749420E0,9.638157349E0,-2.501597900E0,1.004817412E1
2.558219667E0,-2.077679443E-1,9.610315247E0,-1.996548157E0,9.817715172E0
2.568173667E0,-4.745132446E-2,1.044482986E1,-3.216810608E-1,1.044989001E1
2.578126667E0,-6.785389709E-1,1.097682358E1,1.010398865E0,1.104409240E1
2.588080667E0,-8.693920898E-1,1.006806335E1,2.081421661E0,1.031765760E1
2.598033667E0,-8.599617004E-1,9.060209198E0,7.961943054E-1,9.135691009E0
2.607987667E0,-1.596430206E0,9.892179108E0,1.019679565E0,1.007191855E1
2.617940667E0,-1.247356110E0,1.048135391E1,1.593885498E0,1.067497766E1
2.627894667E0,1.221459961E-1,1.026894562E1,4.432283020E-1,1.027923222E1
2.637847667E0,2.114802246E0,1.043674667E1,-9.439370728E-1,1.069060741E1
2.647801667E0,4.684059448E0,9.862540741E0,-3.361260223E0,1.142401825E1
2.657754667E0,3.229085083E0,9.904603271E0,-3.123853912E0,1.087596523E1
2.667707667E0,-2.061213684E-1,8.855884094E0,-8.331674194E-1,8.897378100E0
2.677661667E0,-1.491797791E0,9.213490448E0,-1.489402771E0,9.451570637E0
2.687614667E0,-1.932331696E0,1.049856812E1,-9.229806519E-1,1.071474365E1
2.697568667E0,-1.298250275E0,1.090811646E1,-5.403762817E-2,1.098523456E1
2.707521667E0,-8.846603394E-2,1.044872177E1,5.987548828E-1,1.046623716E1
2.717475667E0,1.186283112E0,9.891879730E0,1.084494781E0,1.002161071E1
2.727428667E0,2.011517029E0,9.459129639E0,1.588197327E0,9.800189030E0
2.737382667E0,2.354753265E0,9.123677216E0,1.861528931E0,9.604771670E0
2.747335667E0,1.595532074E0,9.298813019E0,1.895657959E0,9.623261674E0
2.757289667E0,6.406677246E-2,9.476194153E0,1.772164764E0,9.640691268E0
2.767242667E0,-1.071920929E0,9.049880676E0,1.252146149E0,9.198762129E0
2.777195667E0,-1.147513733E0,8.709937592E0,4.040098572E-1,8.794488307E0
2.787149667E0,-1.107995911E0,9.206305389E0,-8.451425171E-1,9.311174992E0
2.797102667E0,-1.380579071E0,9.768087158E0,-1.348845062E0,9.956952762E0
2.807056667E0,-2.082469482E0,9.141041107E0,-8.869056702E-1,9.417107482E0
2.817009667E0,-5.298980713E-1,8.321645050E0,2.649490356E-2,8.338541256E0
2.826963667E0,-1.272503815E0,1.025547363E1,2.915936279E-1,1.033823158E1
2.836916667E0,-8.771759033E-2,1.052087173E1,6.206094360E-1,1.053952525E1
2.846870667E0,3.257226562E-1,9.989925842E0,8.223898315E-1,1.002900985E1
2.856823667E0,1.233435059E-1,1.036459671E1,3.881428528E-1,1.037259531E1
2.866777667E0,8.918453979E-1,9.815388794E0,7.670050049E-1,9.885622998E0
2.876730667E0,1.651066589E0,9.239386597E0,1.109043732E0,9.451045633E0
2.886683667E0,2.533331909E0,9.091344452E0,1.471140747E0,9.551678889E0
2.896637667E0,3.204536133E0,8.562344513E0,1.349294128E0,9.241395459E0
2.906590667E0,2.744842072E0,9.158255310E0,1.305734711E0,9.649494363E0
2.916544667E0,2.052681427E0,9.404493256E0,1.996997223E0,9.830869359E0
2.926497667E0,1.245859222E0,9.223669281E0,2.373913422E0,9.605399791E0
2.936451667E0,5.230123901E-1,9.181157684E0,2.623743896E0,9.563013668E0
2.946404667E0,-6.526428223E-2,9.530980225E0,2.649190979E0,9.892525275E0
2.956358667E0,-3.664379883E-1,9.962233429E0,1.609752502E0,1.009810254E1
2.966311667E0,-9.565109253E-2,9.380692749E0,9.304650879E-1,9.427211192E0
2.976264667E0,1.544787598E-1,9.321865082E0,5.390290833E-1,9.338714293E0
2.986218667E0,-2.245330811E-1,1.007195526E1,-4.854405212E-1,1.008614646E1
2.996171667E0,-2.408491516E-1,1.044363235E1,-2.335144043E-2,1.044643529E1
3.006125667E0,1.591191101E-1,1.033106644E1,8.740324402E-1,1.036919405E1
3.016078667E0,7.833210754E-1,1.042432251E1,1.528920593E0,1.056492735E1
3.026032667E0,9.264234924E-1,1.119956039E1,8.581654358E-1,1.127053066E1
3.035985667E0,1.170266418E0,1.030157776E1,9.068142700E-1,1.040741754E1
3.045939667E0,1.476080475E0,9.312285004E0,1.459614716E0,9.540856391E0
3.055892667E0,1.319805450E0,9.147178345E0,1.840422821E0,9.423370642E0
3.065846667E0,9.912387085E-1,8.772507477E0,2.286345520E0,9.119584280E0
3.075799667E0,3.034190369E-1,7.904163208E0,2.143841858E0,8.195359482E0
3.085752667E0,-2.002835083E-1,7.910599823E0,2.201322327E0,8.213618145E0
3.095706667E0,-4.029620361E-1,8.227490845E0,3.159779205E0,8.822595345E0
3.105659667E0,-7.376660156E-1,9.000782776E0,2.778072968E0,9.448594136E0
3.115613667E0,-3.695814514E-1,1.002210892E1,3.113675079E0,1.050115375E1
3.125566667E0,1.529818726E-1,1.012644196E1,2.857258301E0,1.052293472E1
3.135520667E0,8.704399109E-1,9.467063141E0,1.003812561E0,9.559842562E0
3.145473667E0,1.039288788E0,1.068867279E1,1.453477478E0,1.083699423E1
3.155427667E0,1.255738678E0,1.096948883E1,1.766626282E0,1.118157114E1
3.165380667E0,1.602268066E0,1.010324020E1,2.080673218E0,1.043896195E1
3.175333667E0,1.425635376E0,9.762698364E0,1.891316986E0,1.004588451E1
3.185287667E0,1.973196716E0,1.000354752E1,1.844165039E0,1.036172828E1
3.195240667E0,2.131268005E0,9.816436615E0,1.015637970E0,1.009634843E1
3.205194667E0,1.430874481E0,9.293723602E0,-6.710545349E-1,9.427142428E0
3.215147667E0,7.973918152E-1,8.173902283E0,4.490661621E-3,8.212705547E0
3.225101667E0,1.336720276E-1,8.042325897E0,2.105222168E0,8.314375167E0
3.235054667E0,-2.216889954E-1,8.885672150E0,3.333418121E0,9.492944324E0
3.245008667E0,3.799099731E-1,8.866062927E0,3.231480103E0,9.444250477E0
3.254961667E0,1.538350983E0,9.176068268E0,2.260748749E0,9.574849216E0
3.264915667E0,2.319875793E0,9.850715332E0,2.467768250E0,1.041673156E1
3.274868667E0,2.438878326E0,1.009755203E1,2.529889069E0,1.069153980E1
3.284821667E0,2.312241669E0,9.712103577E0,2.336640930E0,1.025335595E1
3.294775667E0,2.048639832E0,9.517957306E0,2.655627594E0,1.009162001E1
3.304728667E0,1.536554718E0,9.577383728E0,2.438878326E0,1.000177019E1
3.314682667E0,1.047970734E0,9.501641235E0,2.079026642E0,9.782728689E0
3.324635667E0,6.090834045E-1,9.349707184E0,1.896107025E0,9.559457561E0
3.334589667E0,6.069877625E-1,9.331445160E0,2.005828857E0,9.563872245E0
3.344540875E0,1.323397980E0,7.384294281E0,8.494834900E-1,7.549887843E0
3.354494875E0,1.838776245E0,8.478518829E0,-1.297801208E-1,8.676590488E0
3.364447875E0,1.532962189E0,1.011207184E1,1.192420349E0,1.029688478E1
3.374400875E0,1.353485413E0,1.060275146E1,2.486778717E0,1.097425760E1
3.384354875E0,1.360969849E0,1.026295807E1,2.755170593E0,1.071314670E1
3.394307875E0,1.283431091E0,9.917177124E0,2.672542419E0,1.035084926E1
3.404261875E0,1.360221405E0,9.407187653E0,2.113754425E0,9.737214159E0
3.414214875E0,1.723815308E0,8.849896545E0,2.009271698E0,9.237390369E0
3.424168875E0,2.186353455E0,8.992100830E0,2.187550964E0,9.509121831E0
3.434121875E0,2.235151978E0,9.614356842E0,1.316212921E0,9.958121224E0
3.444075875E0,9.015751648E-1,1.100271973E1,-6.512956238E-1,1.105879131E1
3.454028875E0,4.619393921E-1,1.011506561E1,1.705253906E0,1.026819513E1
3.463982875E0,5.233117676E-1,9.157057800E0,4.286486206E0,1.012420499E1
3.473935875E0,8.878038025E-1,7.903115387E0,2.437531128E0,8.317991729E0
3.483888875E0,1.578766937E0,7.848928070E0,1.650018768E0,8.174395319E0
3.493842875E0,1.355581055E0,8.882828064E0,1.272503815E0,9.075323706E0
3.503795875E0,9.231303406E-1,9.264085236E0,8.138575745E-1,9.345469974E0
3.513749875E0,-3.203338623E-2,1.070019882E1,9.295669556E-1,1.074054820E1
3.523702875E0,-5.307962036E-1,1.150178192E1,8.306227112E-1,1.154394500E1
3.533656875E0,-7.723937988E-2,1.031699570E1,2.221380615E-1,1.031967594E1
3.543609875E0,1.953437805E-1,1.034708313E1,3.941304016E-1,1.035642927E1
3.553563875E0,4.366419983E-1,1.038914566E1,6.614744568E-1,1.041933550E1
3.563516875E0,4.441264343E-1,1.056817337E1,7.843688965E-1,1.060654379E1
3.573469875E0,-1.113684082E-1,1.088431595E1,5.578898621E-1,1.089917326E1
3.583423875E0,-8.216413879E-1,1.080363373E1,7.391629028E-1,1.086001649E1
3.593376875E0,-7.438032532E-1,9.943073273E0,1.797013092E0,1.013149572E1
3.603330875E0,-2.565664673E-1,9.453890533E0,2.481389923E0,9.777482729E0
3.613283875E0,7.845185852E-1,8.523126068E0,1.885628815E0,8.764402057E0
3.623237875E0,1.933828583E0,9.658515015E0,1.863923950E0,1.002500961E1
3.633190875E0,2.539768524E0,8.252788239E0,2.423011322E0,8.968273063E0
3.643144875E0,3.700754242E0,7.179819489E0,2.346071320E0,8.411268661E0
3.653097875E0,4.168980560E0,7.378007355E0,3.261567535E0,9.080375225E0
3.663051875E0,4.081262970E0,7.832911377E0,3.033890991E0,9.338934769E0
3.673004875E0,2.636018372E0,8.983119507E0,2.519710236E0,9.695048664E0
3.682957875E0,1.764830017E-1,1.065604065E1,1.523382111E0,1.076582749E1
3.692911875E0,-2.116598511E0,1.123204285E1,5.986051941E-1,1.144539663E1
3.702864875E0,-2.239343262E0,9.354497223E0,9.515711975E-1,9.665752132E0
3.712818875E0,-1.376986542E0,8.821006622E0,1.794169006E0,9.106332532E0
3.722771875E0,-1.633553009E0,8.613687744E0,2.036215668E0,9.000571439E0
3.732725875E0,-1.603016510E0,9.286538544E0,-5.974076843E-1,9.442793866E0
3.742678875E0,-7.541317749E-1,1.018796402E1,-1.806293793E0,1.037429626E1
3.752632875E0,-8.734336853E-1,1.118489090E1,-1.921853485E0,1.138236318E1
3.762585875E0,-6.833290100E-1,1.136511612E1,-8.834628296E-1,1.141986469E1
3.772538875E0,-1.639390869E0,1.148292114E1,-1.312770081E-1,1.160009974E1
3.782492875E0,-1.592089233E0,1.157947037E1,-2.044747925E-1,1.169019641E1
3.792445875E0,9.292675781E-1,8.605005798E0,2.399061127E0,8.981378364E0
3.802399875E0,2.058219910E0,7.685767365E0,3.755839691E0,8.798501063E0
3.812352875E0,2.594404907E0,8.398884430E0,2.695893860E0,9.194565797E0
3.822306875E0,2.613714752E0,9.166488190E0,1.660946045E0,9.675471684E0
3.832259875E0,1.567091217E0,9.313632202E0,1.055904236E0,9.503391681E0
3.842213875E0,-4.935237122E-1,8.920549622E0,-8.592132568E-2,8.934604282E0
3.852166875E0,-1.757495270E0,9.708960114E0,-7.547305298E-1,9.895570437E0
3.862119875E0,-2.292183380E0,1.013721954E1,-1.443598022E0,1.049291666E1
3.872073875E0,-1.913470917E0,9.894574127E0,-1.102906494E0,1.013806544E1
3.882026875E0,-8.655001831E-1,9.306297455E0,-1.734892273E-1,9.348067255E0
3.891980875E0,9.907896423E-1,9.704319763E0,4.525090027E-1,9.765257323E0
3.901933875E0,1.865720215E0,9.801318054E0,9.219328308E-1,1.001981575E1
3.911887875E0,2.185155945E0,9.995763702E0,1.194665680E0,1.030133120E1
3.921840875E0,1.934277649E0,1.049347870E1,-1.838177490E-1,1.067184680E1
3.931794875E0,1.506317596E0,9.980645142E0,-1.729503479E0,1.024077402E1
3.941747875E0,9.367520142E-1,8.935967560E0,-2.295326843E0,9.273486177E0
3.951701875E0,5.846841431E-1,8.592431946E0,-9.767189026E-1,8.667509568E0
3.961654875E0,3.832031250E-1,8.602760468E0,2.505789185E-1,8.614935989E0
3.971607875E0,9.259744263E-1,9.185049591E0,1.024768982E0,9.288310723E0
3.981561875E0,1.601669312E0,9.769434357E0,1.680555267E0,1.004148685E1
3.991514875E0,1.304986267E0,9.550439758E0,1.540746002E0,9.761546342E0
4.001468875E0,1.346599731E0,9.735155640E0,5.354365540E-1,9.842422388E0
4.011421875E0,1.219064941E0,9.942773895E0,6.780899048E-2,1.001745827E1
4.021375875E0,9.105564880E-1,9.644294586E0,-3.809577942E-1,9.694671734E0
4.031328875E0,9.377998352E-1,9.312883759E0,-4.752616882E-1,9.372040658E0
4.041282875E0,1.061442719E0,9.793384552E0,1.582209778E-1,9.852008704E0
4.051235875E0,8.385562134E-1,9.814790039E0,5.213658142E-1,9.864334866E0
4.061188875E0,1.008153534E0,9.634115753E0,1.374142456E-1,9.687695421E0
4.071142875E0,1.461261292E0,1.015832565E1,-4.556524658E-1,1.027299780E1
4.081095875E0,1.687590637E0,9.821675720E0,-3.237767029E-1,9.970862925E0
4.091049875E0,2.026036835E0,9.403595123E0,9.535171509E-2,9.619850230E0
4.101002875E0,2.173929291E0,9.688303070E0,3.125500488E-1,9.934126659E0
4.110956875E0,2.125280457E0,1.025038422E1,2.493814087E-1,1.047136021E1
4.120909875E0,2.043999481E0,1.011207184E1,-9.969268799E-2,1.031706690E1
4.130863875E0,1.864373016E0,1.048584457E1,-5.081932068E-1,1.066241453E1
4.140816875E0,1.898951111E0,9.537117462E0,-3.908372498E-1,9.732182621E0
4.150770875E0,2.079176331E0,9.576635284E0,-2.372566223E-1,9.802612320E0
4.160723875E0,2.263143768E0,1.207209595E1,-2.359094238E-1,1.228466416E1
4.170676875E0,1.484912109E0,9.342522125E0,-2.974314880E-1,9.464467715E0
4.180630875E0,1.850601654E0,9.219777374E0,-3.683839417E-1,9.410883489E0
4.190583875E0,2.289339294E0,9.328002319E0,3.981719971E-2,9.604909530E0
4.200537875E0,2.218087463E0,9.229806519E0,6.117778015E-1,9.512282189E0
4.210490875E0,2.033221893E0,9.151519318E0,2.969824219E-1,9.379365418E0
4.220444875E0,1.628912659E0,8.957373047E0,-1.386117554E-1,9.105333688E0
4.230397875E0,1.156195679E0,8.789422302E0,-4.168830872E-1,8.874937992E0
4.240351875E0,8.628057861E-1,8.756341095E0,-3.697311401E-2,8.798824365E0
4.250304875E0,7.379653931E-1,8.818611603E0,6.092330933E-2,8.849644918E0
4.260257875E0,6.421646118E-1,9.035809937E0,1.396595764E-1,9.059676672E0
4.270211875E0,8.328680420E-1,9.179960175E0,-1.826202393E-2,9.217682544E0
4.280164875E0,1.505419464E0,1.043839325E1,5.987548828E-3,1.054639167E1
4.290118875E0,2.034120026E0,1.098161362E1,7.993377686E-2,1.116870052E1
4.300071875E0,2.008074188E0,9.145980835E0,1.586700439E-1,9.365175042E0
4.310025875E0,2.167043610E0,8.046517181E0,2.504292297E-1,8.336979762E0
4.319978875E0,2.721790009E0,9.591005402E0,-4.894821167E-2,9.969850620E0
4.329932875E0,3.087629242E0,1.126048370E1,-9.839039612E-1,1.171750889E1
4.339885875E0,2.697839813E0,1.106364304E1,-8.884025574E-1,1.142242514E1
4.349839167E0,2.580932922E0,1.111319000E1,-4.254153442E-1,1.141688158E1
4.359793167E0,2.146386566E0,1.118309464E1,-4.884342957E-1,1.139768174E1
4.369746167E0,1.894460449E0,1.031804352E1,-4.785548401E-1,1.050142929E1
4.379700167E0,1.695973206E0,8.190667419E0,-4.915777588E-1,8.378842795E0
4.389653167E0,1.480571136E0,8.367599487E0,-4.312532043E-1,8.508512878E0
4.399607167E0,1.590442657E0,9.486971741E0,-6.092330933E-2,9.619555723E0
4.409560167E0,1.558708649E0,9.331594849E0,-2.947370911E-1,9.465469086E0
4.419514167E0,1.788780212E0,8.980574799E0,-3.032693481E-1,9.162010187E0
4.429467167E0,1.993853760E0,8.743318176E0,-2.020797729E-1,8.970055840E0
4.439421167E0,2.192490692E0,8.685987396E0,-2.088157654E-1,8.960859139E0
4.449374167E0,2.259251862E0,8.797954559E0,-2.122586060E-1,9.085883398E0
4.459327167E0,2.347268829E0,9.061107330E0,1.348695374E-1,9.361171230E0
4.469281167E0,2.232756958E0,9.206754456E0,4.049079895E-1,9.482271970E0
4.479234167E0,2.766247559E0,9.427245941E0,6.074368286E-1,9.843478607E0
4.489188167E0,2.786006470E0,9.495204620E0,5.905220032E-1,9.913095332E0
4.499141167E0,2.632276154E0,9.369166718E0,3.731739807E-1,9.739066770E0
4.509095167E0,2.432890778E0,9.442214813E0,3.293151855E-2,9.750664726E0
4.519048167E0,2.077978821E0,9.555978241E0,-2.742297363E-1,9.783144590E0
4.529002167E0,1.739682312E0,9.722731476E0,-3.887416077E-1,9.884792458E0
4.538955167E0,1.657503204E0,9.981243896E0,-3.397933960E-1,1.012363601E1
4.548908167E0,1.819167023E0,9.952952728E0,-5.553451538E-1,1.013306691E1
4.558862167E0,2.128872986E0,9.711055756E0,-6.426136780E-1,9.962412179E0
4.568815167E0,2.307152252E0,9.373657379E0,-1.021326141E0,9.707291654E0
4.578769167E0,2.177222443E0,9.063951416E0,-9.060658264E-1,9.365707027E0
4.588722167E0,2.019600220E0,8.817863159E0,-4.110452271E-1,9.055520632E0
4.598676167E0,1.897005157E0,8.423882446E0,-1.380130005E-1,8.635940691E0
4.608629167E0,1.851499786E0,8.467441864E0,-2.909948730E-1,8.672387284E0
4.618583167E0,1.811832275E0,8.662336578E0,-8.876541138E-2,8.850236748E0
4.628536167E0,1.790726166E0,8.502469025E0,-8.412506104E-2,8.689404855E0
4.638490167E0,1.755399628E0,8.142168274E0,-6.122268677E-1,8.351715620E0
4.648443167E0,1.792971497E0,7.695796509E0,-7.283853149E-1,7.935400170E0
4.658396167E0,1.969155121E0,7.532186737E0,-8.340655518E-1,7.829883414E0
4.668350167E0,2.209704895E0,8.033344574E0,-1.212478638E0,8.419472977E0
4.678303167E0,2.349813538E0,8.800050201E0,-1.222058716E0,9.189991007E0
4.688257167E0,2.584974518E0,9.549242249E0,-8.792715454E-1,9.931930287E0
4.698210167E0,2.876867523E0,1.030052994E1,-7.599696350E-1,1.072169938E1
4.708164167E0,3.054398346E0,1.107367218E1,-8.409512329E-1,1.151793227E1
4.718117167E0,3.033741302E0,1.148980682E1,-9.695338440E-1,1.192305510E1
4.728071167E0,2.792742462E0,1.125958557E1,-5.451663208E-1,1.161356466E1
4.738024167E0,2.285447388E0,1.040022263E1,2.020797729E-2,1.064839466E1
4.747977167E0,1.627715149E0,9.581425323E0,4.568499756E-1,9.729433680E0
4.757931167E0,1.064137115E0,9.277407532E0,8.232879639E-1,9.374458991E0
4.767884167E0,9.545649719E-1,9.250762939E0,1.003662872E0,9.353884135E0
4.777838167E0,1.352587280E0,9.279353485E0,1.130598907E0,9.445324099E0
4.787791167E0,1.988315277E0,9.454788666E0,1.255289612E0,9.742801361E0
4.797745167E0,2.778522034E0,9.582473145E0,9.497749329E-1,1.002227762E1
4.807698167E0,3.681893463E0,9.327852631E0,4.924758911E-2,1.002833982E1
4.817652167E0,4.287683716E0,8.711284790E0,-8.331674194E-1,9.744992678E0
4.827605167E0,4.512815552E0,8.520132294E0,-9.830058289E-1,9.691463200E0
4.837558167E0,4.664300537E0,8.735684052E0,-1.039139099E0,9.957293077E0
4.847512167E0,4.761598206E0,9.248068542E0,-8.337661743E-1,1.043526498E1
4.857465167E0,4.645140381E0,1.010967682E1,-1.058299255E-1,1.112627946E1
4.867419167E0,4.209695892E0,1.097487762E1,8.104147339E-1,1.178245519E1
4.877372167E0,3.590134277E0,1.174547516E1,1.404828644E0,1.236198990E1
4.887326167E0,2.894680481E0,1.223136475E1,1.780697021E0,1.269473673E1
4.897279167E0,2.249971161E0,1.236249207E1,2.321971436E0,1.277830707E1
4.907233167E0,1.718426514E0,1.232162704E1,2.848576355E0,1.276283158E1
4.917186167E0,1.326092377E0,1.230710724E1,3.066373444E0,1.275249214E1
4.927140167E0,1.202000427E0,1.216026260E1,2.745889893E0,1.252424460E1
4.937093167E0,1.517843628E0,1.162557449E1,2.497256927E0,1.198724838E1
4.947046167E0,2.163151703E0,1.085288132E1,2.710413666E0,1.139344550E1
4.957000167E0,2.833906860E0,1.020038818E1,3.232527924E0,1.106924496E1
4.966953167E0,3.540287933E0,9.813891907E0,4.298012238E0,1.128357311E1
4.976907167E0,4.038751373E0,9.641001434E0,5.673352203E0,1.189316386E1
4.986860167E0,4.281396790E0,9.840835876E0,6.768774261E0,1.268813281E1
4.996814167E0,3.830983429E0,1.021730301E1,7.078929291E0,1.300695793E1
5.006767167E0,2.855312347E0,1.043809387E1,5.916446686E0,1.233332695E1
5.016721167E0,1.673519897E0,1.004635849E1,4.279750214E0,1.104745444E1
5.026674167E0,8.229885864E-1,9.222920837E0,3.236419830E0,9.808873141E0
5.036627167E0,5.071453857E-1,8.560847626E0,2.569257202E0,8.952451680E0
5.046581167E0,6.655160522E-1,8.261470184E0,2.808609467E0,8.751176399E0
5.056534167E0,1.130449219E0,7.929610291E0,2.243235168E0,8.317976846E0
5.066488167E0,1.606758728E0,7.522456970E0,2.042053528E0,7.958581223E0
5.076441167E0,1.933529205E0,6.948101349E0,1.908231812E0,7.460294645E0
5.086395167E0,2.008972321E0,6.440806274E0,2.217339020E0,7.101869302E0
5.096348167E0,1.962868195E0,6.226302338E0,2.675236816E0,7.055252254E0
5.106302167E0,1.872456207E0,6.581962738E0,2.621199188E0,7.327960898E0
5.116255167E0,2.116598511E0,7.375762024E0,3.392694855E0,8.390007930E0
5.126209167E0,2.670746155E0,7.869136047E0,4.689747620E0,9.542008169E0
5.136162167E0,2.997816010E0,7.833210754E0,5.190606079E0,9.863492435E0
5.146115167E0,2.851121063E0,7.400610352E0,4.690496063E0,9.214047873E0
5.156069167E0,2.483934631E0,7.055727539E0,3.981869659E0,8.473990108E0
5.166022167E0,2.199376373E0,7.074288940E0,3.971092072E0,8.405497765E0
5.175976167E0,1.737736359E0,6.865772552E0,3.814218292E0,8.044055046E0
5.185929167E0,1.576820984E0,6.908882904E0,2.997217255E0,7.694305600E0
5.195883167E0,2.124532013E0,7.420369263E0,2.817141724E0,8.216556685E0
5.205836167E0,2.536175995E0,8.030650177E0,3.139271851E0,8.987689286E0
5.215790167E0,2.898123322E0,8.456364899E0,3.075953522E0,9.453608631E0
5.225743167E0,3.175795898E0,8.725205841E0,3.405717773E0,9.890086456E0
5.235696167E0,3.154390411E0,9.054221649E0,4.083508301E0,1.042133142E1
5.245650167E0,3.016826477E0,9.320368195E0,4.184697876E0,1.065280252E1
5.255603167E0,2.728526001E0,9.431287537E0,3.885470123E0,1.055892593E1
5.265557167E0,2.531385956E0,9.477541351E0,4.335284729E0,1.072503607E1
5.275510167E0,2.680775299E0,9.425000610E0,4.638254700E0,1.084115305E1
5.285464167E0,2.794538727E0,9.069789276E0,4.726421356E0,1.060233856E1
5.295417167E0,2.772235107E0,8.648265839E0,4.562961273E0,1.016358230E1
5.305371167E0,2.667902069E0,8.296647034E0,4.416116638E0,9.770063440E0
5.315324167E0,2.456840973E0,8.130941620E0,4.324357452E0,9.531439900E0
5.325277167E0,2.207758942E0,8.171357574E0,4.541106720E0,9.605567885E0
5.335231167E0,1.995500336E0,8.453071747E0,4.730612640E0,9.890153664E0
5.345184500E0,2.094594269E0,8.862620087E0,4.883145447E0,1.033336680E1
5.355138500E0,2.303410034E0,9.034462738E0,4.805307312E0,1.048895577E1
5.365091500E0,2.151925049E0,8.967851257E0,4.704866180E0,1.035320740E1
5.375045500E0,1.989363098E0,9.073830872E0,4.949457550E0,1.052564023E1
5.384998500E0,2.088756409E0,9.256301422E0,4.906796265E0,1.068263399E1
5.394952500E0,2.434986420E0,9.635013885E0,4.777016144E0,1.102644706E1
5.404905500E0,3.168910217E0,1.027298721E1,5.059628448E0,1.188175485E1
5.414858500E0,3.848347321E0,1.057969940E1,5.358107758E0,1.246792426E1
5.424812500E0,4.167034607E0,1.039483383E1,4.868026886E0,1.221124210E1
5.434765500E0,4.273612976E0,9.852661285E0,4.273912354E0,1.155876417E1
5.444719500E0,4.373754730E0,9.313781891E0,3.909270630E0,1.100720947E1
5.454672500E0,4.161945190E0,8.821306000E0,3.418141937E0,1.033542073E1
5.464626500E0,3.733536072E0,8.620423737E0,3.244952087E0,9.938848578E0
5.474579500E0,3.323987732E0,8.547525330E0,2.691253510E0,9.557820314E0
5.484533500E0,2.947221222E0,8.601413269E0,2.301613770E0,9.379117714E0
5.494486500E0,2.596949615E0,8.789721680E0,2.398312683E0,9.473925176E0
5.504440500E0,2.358944550E0,8.779842224E0,2.785108337E0,9.508263633E0
5.514393500E0,2.275867310E0,8.639284515E0,3.055745544E0,9.442160229E0
5.524346500E0,2.390828247E0,8.637937317E0,3.325035553E0,9.559596342E0
5.534300500E0,2.415975952E0,8.820856934E0,3.329226837E0,9.732841732E0
5.544253500E0,2.373614044E0,9.241182861E0,3.477867737E0,1.015524831E1
5.554207500E0,2.454595642E0,9.722282410E0,3.664828949E0,1.067608478E1
5.564160500E0,2.512225800E0,1.001507355E1,3.560795288E0,1.092209869E1
5.574114500E0,2.480342102E0,1.010398865E1,3.236270142E0,1.089569309E1
5.584067500E0,2.569257202E0,1.012015503E1,2.977907410E0,1.085755741E1
5.594021500E0,2.911295929E0,1.000519409E1,2.857258301E0,1.080478958E1
5.603974500E0,3.317850494E0,9.760003967E0,2.577190704E0,1.062580450E1
5.613927500E0,3.555256805E0,9.668095093E0,2.663411407E0,1.063981551E1
5.623881500E0,3.578757935E0,9.661658478E0,2.730771332E0,1.065890543E1
5.633834500E0,3.362906799E0,9.653724976E0,2.796185303E0,1.059821684E1
5.643788500E0,3.132685547E0,9.608069916E0,2.795287170E0,1.048534008E1
5.653741500E0,3.079096985E0,9.560319214E0,2.876867523E0,1.044781836E1
5.663695500E0,3.195704498E0,9.534273376E0,2.818788300E0,1.044320179E1
5.673648500E0,3.348087616E0,9.408085785E0,2.403851166E0,1.027133240E1
5.683602500E0,3.332070923E0,9.387728119E0,2.599344635E0,1.029508273E1
5.693555500E0,3.078947296E0,9.187444611E0,2.646646271E0,1.004459016E1
5.703508500E0,2.595303040E0,9.074279938E0,2.668949890E0,9.808233672E0
5.713462500E0,2.142195282E0,9.364077301E0,2.778671722E0,9.999798041E0
5.723415500E0,1.684746552E0,9.649384003E0,2.903212738E0,1.021653693E1
5.733369500E0,1.457818451E0,9.819580078E0,2.661166077E0,1.027770366E1
5.743322500E0,1.541045380E0,9.668544159E0,2.693199463E0,1.015425479E1
5.753276500E0,1.664538574E0,9.232949982E0,2.705773315E0,9.764182673E0
5.763229500E0,2.165846100E0,8.659492493E0,2.303559723E0,9.218681411E0
5.773183500E0,2.450554047E0,8.220156097E0,1.482966156E0,8.704904940E0
5.783136500E0,2.656076660E0,8.011639709E0,8.363108826E-1,8.481776344E0
5.793089500E0,2.727927246E0,7.836054840E0,1.253643036E0,8.391481596E0
5.803043500E0,2.638712769E0,7.775430908E0,2.085762634E0,8.471749326E0
5.812996500E0,2.467917938E0,8.052504730E0,2.748434601E0,8.859308333E0
5.822950500E0,2.107766876E0,8.495134277E0,3.059936829E0,9.272173477E0
5.832903500E0,1.541793823E0,8.872499542E0,3.188220062E0,9.553173477E0
5.842857500E0,1.280437317E0,9.088350677E0,2.926713867E0,9.633446518E0
5.852810500E0,1.368903351E0,9.019942932E0,2.730621643E0,9.523106712E0
5.862764500E0,1.581311646E0,8.905880127E0,2.777324524E0,9.461964852E0
5.872717500E0,1.999990997E0,8.636590118E0,2.555934906E0,9.226237375E0
5.882670500E0,2.412084045E0,8.378975830E0,2.854264526E0,9.174541481E0
5.892624500E0,2.735411682E0,8.038583679E0,2.256258087E0,8.785898087E0
5.902577500E0,2.779270477E0,7.782915344E0,1.999541931E0,8.502722127E0
5.912531500E0,2.886597290E0,7.740254059E0,1.745370483E0,8.443358037E0
5.922484500E0,2.978805542E0,7.838749237E0,2.250420227E0,8.682376590E0
5.932438500E0,3.197201385E0,8.157137146E0,2.692600708E0,9.165755926E0
5.942391500E0,3.173101501E0,8.436905365E0,2.719394989E0,9.415150258E0
5.952345500E0,2.827619934E0,8.705596619E0,2.554737396E0,9.503132649E0
5.962298500E0,2.462229767E0,8.954678650E0,2.165247345E0,9.536096749E0
5.972251500E0,2.182461548E0,9.372010803E0,2.126627655E0,9.854961699E0
5.982205500E0,2.284848633E0,9.548493805E0,2.049537964E0,1.002969955E1
5.992158500E0,2.396366730E0,9.285640411E0,1.962269440E0,9.788574600E0
6.002112500E0,2.850522308E0,8.911717987E0,1.863923950E0,9.540356775E0
6.012065500E0,3.244952087E0,8.512797546E0,2.038760376E0,9.335629598E0
6.022019500E0,3.288511505E0,8.129145355E0,2.227667542E0,9.047641394E0
6.031972500E0,2.998714142E0,7.949069824E0,2.460583191E0,8.845024998E0
6.041925500E0,2.669997711E0,7.956554260E0,2.721640320E0,8.822866286E0
6.051879500E0,2.354453888E0,8.133186951E0,2.881807251E0,8.944103986E0
6.061832500E0,1.998643799E0,8.532107391E0,3.181184692E0,9.322626755E0
6.071786500E0,1.753303986E0,8.776249695E0,2.954555969E0,9.424756472E0
6.081739500E0,1.614542542E0,8.792266388E0,2.717299347E0,9.343147842E0
6.091693500E0,1.497036896E0,8.671916656E0,2.825075226E0,9.242527143E0
6.101646500E0,1.284927979E0,8.496780853E0,2.928959198E0,9.078828491E0
6.111600500E0,1.036893768E0,8.361761627E0,3.074606323E0,8.969248031E0
6.121553500E0,8.219407654E-1,8.189020844E0,3.159629517E0,8.815832784E0
6.131506500E0,6.265969849E-1,8.018375702E0,3.255430298E0,8.676681342E0
6.141460500E0,5.523513794E-1,8.044571228E0,3.328029327E0,8.723301983E0
6.151413500E0,7.117698669E-1,8.201744385E0,3.347488861E0,8.887120398E0
6.161367500E0,1.096020813E0,8.348589020E0,3.248843994E0,9.025252769E0
6.171320500E0,1.500928802E0,8.413404236E0,3.100053406E0,9.091121450E0
6.181274500E0,1.782044220E0,8.459508362E0,3.013383636E0,9.155295968E0
6.191227500E0,1.972897339E0,8.502618713E0,2.929258575E0,9.206921565E0
6.201181500E0,2.147883453E0,8.600814514E0,2.934347992E0,9.337976857E0
6.211134500E0,2.354004822E0,8.696764984E0,2.878364410E0,9.458331860E0
6.221087500E0,2.485431519E0,8.741072845E0,3.054398346E0,9.587130623E0
6.231041500E0,2.542762299E0,8.824299774E0,3.413052521E0,9.797082939E0
6.240994500E0,2.627037048E0,9.011260986E0,3.664529572E0,1.007635476E1
6.250948500E0,2.701731720E0,9.323960724E0,3.586691437E0,1.034891073E1
6.260901500E0,2.769540710E0,9.702673187E0,3.200344849E0,1.058557650E1
6.270855500E0,2.823428650E0,9.985584869E0,2.639311523E0,1.070745627E1
6.280808500E0,2.930306396E0,1.002764740E1,2.022893372E0,1.064107633E1
6.290762500E0,3.147055664E0,9.782457275E0,2.196532288E0,1.050833877E1
6.300715500E0,3.535497894E0,9.171577606E0,3.465293884E0,1.042237223E1
6.310668500E0,3.967499542E0,8.284222870E0,4.010609894E0,1.002269389E1
6.320622500E0,4.508474579E0,7.903714142E0,4.885091400E0,1.032759208E1
6.330575500E0,5.009782104E0,8.221503296E0,4.761298828E0,1.074062380E1
6.340529500E0,5.470973053E0,8.713081055E0,3.763922882E0,1.095520164E1
6.350482292E0,5.451962585E0,9.072932739E0,2.791844330E0,1.094698129E1
6.360436292E0,4.732708282E0,9.104367371E0,1.724114685E0,1.040483562E1
6.370389292E0,3.839964752E0,9.115444336E0,1.024768982E0,9.944184542E0
6.380342292E0,3.258124695E0,9.341474304E0,3.008743286E-1,9.897931302E0
6.390296292E0,3.575614471E0,9.849068756E0,-1.303788757E-1,1.047884406E1
6.400249292E0,4.148024139E0,1.051503387E1,4.098477173E-1,1.131105728E1
6.410203292E0,4.423900452E0,1.077773758E1,1.364712067E0,1.173000262E1
6.420156292E0,4.587360535E0,1.085482727E1,1.844464417E0,1.192783303E1
6.430110292E0,4.053271179E0,1.053239777E1,2.607876892E0,1.158280760E1
6.440063292E0,3.300336914E0,1.007060806E1,3.322341156E0,1.110618392E1
6.450017292E0,2.252366180E0,9.934241638E0,4.160597992E0,1.100331250E1
6.459970292E0,1.200204163E0,1.020293289E1,4.930896149E0,1.139535284E1
6.469923292E0,5.948629761E-1,1.066023193E1,5.420527954E0,1.197399391E1
6.479877292E0,6.128256226E-1,1.096859070E1,5.295837250E0,1.219554957E1
6.489830292E0,1.054557037E0,1.087488556E1,4.453838196E0,1.179880931E1
6.499784292E0,1.327888641E0,1.071576645E1,3.008144531E0,1.120891932E1
6.509737292E0,1.213975525E0,1.053958282E1,1.907633057E0,1.077940660E1
6.519691292E0,1.744921417E0,9.959089966E0,1.375040588E0,1.020386987E1
6.529644292E0,2.753973083E0,9.183702393E0,3.073408813E0,1.006829673E1
6.539598292E0,3.256478119E0,9.670789490E0,4.821174316E0,1.128594439E1
6.549551292E0,2.705024872E0,1.057326279E1,5.886508942E0,1.240008198E1
6.559504292E0,1.654509430E0,1.029873367E1,6.303841095E0,1.218768761E1
6.569458292E0,1.183588715E0,9.201365662E0,6.276597748E0,1.120096833E1
6.579411292E0,9.186396790E-1,8.354127502E0,6.033054199E0,1.034567969E1
6.589365292E0,4.611909485E-1,8.427325287E0,6.186485138E0,1.046446878E1
6.599318292E0,-6.903643799E-1,8.708889771E0,5.411097565E0,1.027625130E1
6.609272292E0,-1.978735199E0,9.488618317E0,4.107159119E0,1.052701413E1
6.619225292E0,-2.432441711E0,1.037477554E1,4.036356354E0,1.139495120E1
6.629178292E0,-1.557960205E0,1.019919067E1,4.217779083E0,1.114631736E1
6.639132292E0,-2.131567383E-1,9.444609833E0,4.111949158E0,1.030311684E1
6.649085292E0,5.736071777E-1,8.988508301E0,4.237837372E0,9.953972687E0
6.659039292E0,6.782395935E-1,9.507329407E0,5.046306152E0,1.078492129E1
6.668992292E0,5.852828979E-1,1.083731369E1,5.648653564E0,1.223508117E1
6.678946292E0,4.261637878E-1,1.201805832E1,5.571713562E0,1.325365359E1
6.688899292E0,7.550299072E-1,1.271111710E1,4.237088928E0,1.341996612E1
6.698853292E0,1.843715973E0,1.247206421E1,2.354603577E0,1.282559286E1
6.708806292E0,1.626517639E0,1.051952454E1,2.307301941E0,1.089172155E1
6.718759292E0,1.194515991E-1,8.066725159E0,3.869154053E0,8.947439665E0
6.728713292E0,-5.688171387E-1,5.656587067E0,2.607427826E0,6.254535158E0
6.738666292E0,-5.887257385E-1,4.010460205E0,-5.792953491E-2,4.053855558E0
6.748620292E0,-2.797682190E-1,2.888992310E0,-9.961784363E-1,3.068699773E0
6.758573292E0,4.348457336E-1,2.766696625E0,-6.165678406E-1,2.867726787E0
6.768527292E0,1.366059265E0,3.786525879E0,-3.445834351E-1,4.040127955E0
6.778480292E0,2.607278137E0,5.170847168E0,7.831713867E-1,5.843707482E0
6.788434292E0,3.358416138E0,6.055357819E0,2.019749908E0,7.212884788E0
6.798387292E0,3.090772705E0,5.752836914E0,3.813320160E0,7.562368618E0
6.808340292E0,1.822310486E0,4.563110962E0,6.249504089E0,7.949786068E0
6.818294292E0,1.628613281E-1,4.044439545E0,6.048621826E0,7.278038269E0
6.828247292E0,-9.680369568E-1,3.680396576E0,4.760849762E0,6.094924525E0
6.838201292E0,-1.718576202E0,2.917133789E0,4.384831696E0,5.539848618E0
6.848154292E0,-1.587598572E0,4.072880402E0,5.233267365E0,6.818791044E0
6.858108292E0,-6.634204102E-1,6.517147522E0,5.560935974E0,8.592866074E0
6.868061292E0,1.765279083E0,1.261052628E1,6.719526672E0,1.439769502E1
6.878014292E0,3.346890106E0,1.361823074E1,9.742640076E0,1.707562349E1
6.887968292E0,2.375410309E0,7.120393066E0,9.757309570E0,1.231046959E1
6.897921292E0,4.318519592E-1,6.925198975E0,8.625662842E0,1.107009198E1
6.907875292E0,-8.402626648E0,5.809868317E0,7.417225800E0,1.262433931E1
6.917828292E0,-4.359983368E0,-1.523082733E0,2.684996521E1,2.724426302E1
6.927782292E0,5.000950470E0,1.118773499E0,1.291184967E1,1.389161696E1
6.937735292E0,6.040538635E0,7.367379456E0,1.162632294E1,1.503122657E1
6.947688292E0,6.905440063E0,7.762258301E0,1.270707550E1,1.641363836E1
6.957642292E0,3.933819580E0,8.105793915E0,1.219169724E1,1.515969370E1
6.967595292E0,2.577041016E0,6.704557800E0,1.035022659E1,1.259838983E1
6.977549292E0,2.942431183E0,5.466033325E0,8.462651825E0,1.049532741E1
6.987502292E0,2.800077209E0,4.923711090E0,8.692124634E0,1.037479609E1
6.997456292E0,2.848127289E0,4.062851257E0,8.258775787E0,9.634623340E0
7.007409292E0,2.368674316E0,3.268602905E0,5.986351318E0,7.220165170E0
7.017362292E0,2.093247070E0,2.369871826E0,6.731501770E0,7.437142721E0
7.027316292E0,1.987716522E0,1.897454224E0,7.783963165E0,8.254782375E0
7.037269292E0,2.652035065E0,2.776576080E0,8.344547424E0,9.185539529E0
7.047223292E0,2.942880249E0,3.777394867E0,9.467811584E0,1.060984035E1
7.057176292E0,2.523302765E0,4.540507965E0,1.009770172E1,1.135547663E1
7.067130292E0,2.637215881E0,5.914351044E0,1.010144394E1,1.199890101E1
7.077083292E0,2.294129333E0,6.818171539E0,9.204359436E0,1.168206853E1
7.087037292E0,2.173779602E0,7.625891876E0,8.541986847E0,1.165525993E1
7.096990292E0,2.383942566E0,8.181835785E0,8.653954010E0,1.214563868E1
7.106943292E0,2.701731720E0,8.439300385E0,8.206384735E0,1.207749542E1
7.116897292E0,2.998863831E0,8.308322754E0,8.159981232E0,1.202525280E1
7.126850292E0,2.975213013E0,8.472381592E0,7.620353394E0,1.177722073E1
7.136804292E0,2.651436310E0,7.961643677E0,8.179590454E0,1.171851460E1
7.146757292E0,2.385888519E0,7.720195770E0,8.381520538E0,1.164232680E1
7.156711292E0,2.054477692E0,7.420219574E0,8.391399994E0,1.138842092E1
7.166664292E0,1.971101074E0,7.264243927E0,8.700956268E0,1.150483026E1
7.176617292E0,1.784439240E0,7.341333618E0,9.376950531E0,1.204186879E1
7.186571292E0,1.522483978E0,7.395520935E0,9.687554626E0,1.228252425E1
7.196524292E0,4.831951904E-1,6.948700104E0,9.880802765E0,1.208917590E1
7.206478292E0,5.342390442E-1,5.791157227E0,9.506880341E0,1.114467080E1
7.216431292E0,9.743238831E-1,5.092410278E0,9.412426758E0,1.074596329E1
7.226385292E0,1.720821533E0,4.144730988E0,9.613159332E0,1.060909299E1
7.236338292E0,2.039359131E0,3.137026520E0,9.938432922E0,1.061943360E1
7.246291292E0,1.827399902E0,2.863395538E0,1.004111938E1,1.060011806E1
7.256245292E0,2.087558899E0,3.276835785E0,9.531429291E0,1.029289557E1
7.266198292E0,2.146685944E0,3.412004700E0,9.513616333E0,1.033242142E1
7.276152292E0,1.710193634E0,2.824925537E0,9.863139496E0,1.040127335E1
7.286105292E0,1.196761322E0,3.000360718E0,1.001387604E1,1.052198248E1
7.296059292E0,9.065148926E-1,3.608246613E0,1.003902374E1,1.070622298E1
7.306012292E0,8.072712708E-1,4.264182587E0,1.063403641E1,1.148554180E1
7.315965292E0,9.719288635E-1,4.988077240E0,1.036414764E1,1.154301159E1
7.325919292E0,1.369053040E0,5.646857300E0,9.473499756E0,1.111343787E1
7.335872292E0,1.650168457E0,6.307882690E0,8.937913513E0,1.106339631E1
7.345826542E0,1.616338806E0,6.664590912E0,8.623716888E0,1.101806771E1
7.355779542E0,1.563798065E0,7.028933258E0,8.080496521E0,1.082339093E1
7.365733542E0,1.329684906E0,7.549700317E0,7.825876007E0,1.095492456E1
7.375686542E0,1.043480072E0,7.639363861E0,7.924820251E0,1.105674034E1
7.385640542E0,1.535357208E0,8.167016602E0,8.180787964E0,1.166116519E1
7.395593542E0,3.488645325E0,8.108638000E0,7.361391907E0,1.149394394E1
7.405546542E0,4.929998016E0,7.706424408E0,5.661227417E0,1.075840850E1
7.415500542E0,4.823269958E0,7.699239349E0,5.982459412E0,1.087805315E1
7.425453542E0,4.891677704E0,7.404651947E0,7.775580597E0,1.179902686E1
7.435407542E0,4.962779846E0,6.750811615E0,9.033863983E0,1.232125561E1
7.445360542E0,3.506907349E0,6.126459961E0,9.278455353E0,1.165854384E1
7.455314542E0,1.861229553E0,5.826932831E0,9.611063690E0,1.139253558E1
7.465267542E0,1.421593781E0,6.073769531E0,9.004075928E0,1.095376595E1
7.475220542E0,3.848497009E-1,6.532116394E0,7.863447876E0,1.022988105E1
7.485174542E0,-2.484832764E-2,7.079677734E0,7.209308167E0,1.010428516E1
7.495127542E0,3.397933960E-1,6.732848969E0,7.301516418E0,9.937749081E0
7.505081542E0,9.021739197E-1,6.860084381E0,7.811805267E0,1.043546726E1
7.515034542E0,1.574425964E0,6.968608704E0,8.739126892E0,1.128772179E1
7.524988542E0,1.643282776E0,7.019203491E0,7.701784058E0,1.054926887E1
7.534941542E0,1.482517090E0,7.561825104E0,7.550448761E0,1.078834243E1
7.544894542E0,1.095721436E0,7.509284363E0,7.435487823E0,1.062433227E1
7.554848542E0,7.923023987E-1,7.273674316E0,7.407645721E0,1.041188246E1
7.564801542E0,6.429130554E-1,7.674989777E0,7.447762299E0,1.071391472E1
7.574755542E0,9.955796814E-1,8.080346832E0,7.574099579E0,1.111980972E1
7.584708542E0,1.872156830E0,7.998018036E0,7.705825653E0,1.126290427E1
7.594662542E0,2.950214996E0,7.791148224E0,7.507488098E0,1.121463939E1
7.604615542E0,3.642225952E0,7.713759155E0,6.537056122E0,1.074713883E1
7.614568542E0,3.858975220E0,7.773035889E0,5.549409943E0,1.030086052E1
7.624522542E0,3.371738434E0,7.967780914E0,5.123994598E0,1.005532065E1
7.634475542E0,2.497406616E0,7.639214172E0,5.151537323E0,9.546358980E0
7.644429542E0,1.694176941E0,6.914870453E0,5.242847443E0,8.841556322E0
7.654382542E0,1.170266418E0,6.499783630E0,5.411396942E0,8.538145442E0
7.664336542E0,1.116378479E0,6.126160583E0,5.254523163E0,8.147770129E0
7.674289542E0,9.885443115E-1,6.176306305E0,4.978497162E0,7.994336334E0
7.684242542E0,3.056643677E-1,5.796096954E0,4.809049530E0,7.537581044E0
7.694196542E0,4.402345276E-1,5.965843964E0,5.251379700E0,7.960030740E0
7.704149542E0,1.088536377E0,6.303691406E0,7.097790070E0,9.555106523E0
7.714103542E0,1.376537476E0,6.032305756E0,8.556806030E0,1.055947430E1
7.724056542E0,1.128054199E0,5.762716370E0,8.194259949E0,1.008103677E1
7.734010542E0,3.987707520E-1,5.341192932E0,7.917186127E0,9.558723566E0
7.743963542E0,-2.785707092E-1,5.795198822E0,7.538623352E0,9.512768949E0
7.753916542E0,-3.531156921E-1,5.806126099E0,6.978338470E0,9.084767403E0
7.763870542E0,6.646179199E-2,5.667214966E0,6.442602539E0,8.580726666E0
7.773823542E0,9.439370728E-1,5.601501617E0,6.250252533E0,8.445915835E0
7.783777542E0,1.988315277E0,5.972430267E0,6.036047974E0,8.721077690E0
7.793730542E0,2.342478790E0,5.995033264E0,5.662574615E0,8.572769797E0
7.803684542E0,2.095941467E0,5.951024780E0,6.117927704E0,8.788441612E0
7.813637542E0,1.307680664E0,5.895639954E0,6.506070557E0,8.876798594E0
7.823591542E0,6.593788147E-1,5.706433411E0,6.582112427E0,8.736267320E0
7.833544542E0,1.178050232E-1,5.911057892E0,6.845863953E0,9.045459451E0
7.843497542E0,-3.517684937E-2,6.222260742E0,6.924450531E0,9.309445811E0
7.853451542E0,-2.396516418E-1,6.691085815E0,6.638994141E0,9.428907970E0
7.863404542E0,-2.525248718E-1,7.208110657E0,6.611301727E0,9.784167751E0
7.873358542E0,-1.252894592E-1,7.551346893E0,6.252048798E0,9.804419999E0
7.883311542E0,-3.417393494E-1,7.615862732E0,5.969286804E0,9.682486038E0
7.893265542E0,-8.090675354E-1,7.485034790E0,6.407725067E0,9.886317647E0
7.903218542E0,-1.646276550E0,8.608448639E0,6.603218536E0,1.097351856E1
7.913171542E0,-1.926643524E0,8.957373047E0,6.186335449E0,1.105519034E1
7.923125542E0,-9.873468018E-1,7.357649689E0,5.699248352E0,9.359022087E0
7.933078542E0,-5.574407959E-1,6.827152863E0,6.129753113E0,9.192096044E0
7.943032542E0,-4.146377563E-2,4.809199219E0,5.678890686E0,7.441768324E0
7.952985542E0,5.924679565E-1,4.380191345E0,5.716163177E0,7.225760581E0
7.962939542E0,1.710792389E0,5.041067047E0,6.066135406E0,8.070759961E0
7.972892542E0,2.980751495E0,6.157595215E0,7.053631897E0,9.826219072E0
7.982845542E0,3.546574860E0,7.445067902E0,7.659721527E0,1.125515718E1
7.992799542E0,3.198548584E0,8.526269531E0,9.560468903E0,1.320342951E1
8.002752542E0,2.881358185E0,8.148006134E0,6.783443756E0,1.098668913E1
8.012706542E0,3.445684662E0,7.724087677E0,7.762258301E0,1.147984874E1
8.022659542E0,3.696862335E0,7.262896729E0,8.334967346E0,1.165710687E1
8.032613542E0,3.527115326E0,7.075636139E0,7.169191589E0,1.067251036E1
8.042566542E0,3.153641968E0,6.676416321E0,6.455924835E0,9.808106750E0
8.052519542E0,2.991379395E0,6.270759888E0,6.114185486E0,9.254947023E0
8.062473542E0,3.128643951E0,5.740113373E0,7.441325684E0,9.905081647E0
8.072426542E0,3.202141113E0,5.581293640E0,8.908574524E0,1.098941520E1
8.082380542E0,2.874173126E0,5.232668610E0,9.007518768E0,1.080634472E1
8.092333542E0,2.017504578E0,4.866080933E0,9.433532867E0,1.080465690E1
8.102287542E0,1.173858948E0,4.634811859E0,8.579409027E0,9.821694612E0
8.112240542E0,2.885998535E-1,4.542603607E0,8.193960571E0,9.373341307E0
8.122193542E0,6.466552734E-2,4.697082367E0,7.542814636E0,8.885989930E0
8.132147542E0,6.884184265E-1,5.142256622E0,7.978857880E0,9.517294582E0
8.142100542E0,2.174827423E0,5.353467407E0,9.157057800E0,1.082779734E1
8.152054542E0,3.337609406E0,5.655389557E0,9.412726135E0,1.147704147E1
8.162007542E0,4.082161102E0,5.474565582E0,9.601333923E0,1.178221205E1
8.171961542E0,3.411405945E0,5.304369507E0,9.212143250E0,1.116412153E1
8.181914542E0,2.528392181E0,5.575904846E0,8.619824982E0,1.057283617E1
8.191867542E0,2.086361389E0,5.577102356E0,7.979905701E0,9.956699731E0
8.201821542E0,2.169738007E0,5.516179047E0,7.385192413E0,9.469797320E0
8.211774542E0,2.551893311E0,5.474565582E0,6.603966980E0,8.949603771E0
8.221728542E0,3.013832703E0,5.299429779E0,5.439538422E0,8.170417479E0
8.231681542E0,3.010838928E0,4.919819183E0,4.141138458E0,7.100619662E0
8.241635542E0,2.793640594E0,4.555177460E0,2.901566162E0,6.080555538E0
8.251588542E0,2.745740204E0,4.602778473E0,3.316952362E0,6.302922490E0
8.261541542E0,3.047662354E0,4.762346649E0,6.383176117E0,8.527199351E0
8.271495542E0,3.790866852E0,4.538262634E0,8.924890594E0,1.070608105E1
8.281448542E0,3.563639374E0,4.333638153E0,1.123458755E1,1.255770293E1
8.291402542E0,2.493514709E0,5.149142303E0,1.193602890E1,1.323631625E1
8.301355542E0,1.558409271E0,5.860163727E0,1.067579956E1,1.227773817E1
8.311309542E0,4.516108704E-1,5.632936249E0,9.372160492E0,1.094400820E1
8.321262542E0,9.455836487E-1,5.655838623E0,8.788973236E0,1.049422172E1
8.331215542E0,2.511477356E0,5.911656647E0,8.255632324E0,1.045995544E1
8.341169542E0,4.048181763E0,6.103258209E0,7.303312683E0,1.034291605E1
8.351122000E0,4.460424500E0,6.201304321E0,6.496789856E0,1.002795295E1
8.361076000E0,4.551285553E0,6.152655487E0,5.924829254E0,9.678479809E0
8.371029000E0,4.631668396E0,6.203699341E0,6.195765839E0,9.915934246E0
8.380983000E0,4.236340485E0,5.904321899E0,6.370302887E0,9.663765139E0
8.390936000E0,3.046015778E0,5.261259155E0,5.941145325E0,8.500368685E0
8.400889000E0,2.156864777E0,5.114863586E0,5.932613068E0,8.124641099E0
8.410843000E0,2.018402710E0,5.130431213E0,6.515650635E0,8.535161225E0
8.420796000E0,2.034269714E0,4.890330505E0,7.325616302E0,9.039814154E0
8.430750000E0,2.147584076E0,4.944068756E0,7.995772705E0,9.643044871E0
8.440703000E0,2.291285248E0,4.997657318E0,8.114625549E0,9.801719980E0
8.450657000E0,3.103945312E0,4.890779572E0,7.178322601E0,9.224018468E0
8.460610000E0,4.290527802E0,5.083129578E0,5.967939606E0,8.936617831E0
8.470563000E0,4.450245667E0,5.157524872E0,5.901777191E0,9.013086226E0
8.480517000E0,3.625011749E0,5.453459473E0,7.923323364E0,1.027910422E1
8.490470000E0,3.450774078E0,5.097948761E0,9.621691589E0,1.142251603E1
8.500424000E0,3.746858368E0,5.177433472E0,1.003183868E1,1.189464385E1
8.510377000E0,3.589834900E0,5.770350494E0,9.941726074E0,1.204249878E1
8.520331000E0,2.995720367E0,5.928721161E0,8.929680634E0,1.112938773E1
8.530284000E0,2.404449921E0,5.811365204E0,8.178093567E0,1.031671262E1
8.540237000E0,1.546583862E0,5.582940216E0,7.822283478E0,9.733923254E0
8.550191000E0,1.860481110E0,6.271059265E0,7.454049225E0,9.917178233E0
8.560144000E0,3.077300720E0,7.034771118E0,7.608827362E0,1.080981213E1
8.570098000E0,4.328848114E0,7.638016663E0,8.183781738E0,1.200218764E1
8.580051000E0,4.496200104E0,7.539671173E0,8.186176758E0,1.200316403E1
8.590005000E0,4.127367096E0,7.466623077E0,8.150101776E0,1.179871935E1
8.599958000E0,3.608246613E0,7.192543030E0,7.823181610E0,1.122293586E1
8.609911000E0,3.390748901E0,7.557334442E0,7.259753265E0,1.101428615E1
8.619865000E0,1.938319244E0,7.606132965E0,6.533463593E0,1.021256514E1
8.629818000E0,7.942483521E-1,7.495363312E0,5.936205597E0,9.594260707E0
8.639772000E0,-1.070274353E-1,7.738607483E0,6.237828369E0,9.940221497E0
8.649725000E0,-9.461824036E-1,7.722590790E0,6.748266907E0,1.029916384E1
8.659679000E0,5.149291992E-2,6.322552185E0,6.997348938E0,9.430811726E0
8.669632000E0,2.011217651E0,5.480702820E0,6.818770294E0,8.976565499E0
8.679585000E0,3.213517456E0,5.749843140E0,6.229745178E0,9.066262491E0
8.689539000E0,3.617377625E0,6.403533783E0,5.680088196E0,9.292688938E0
8.699492000E0,3.273842010E0,6.983727264E0,5.824537811E0,9.665181257E0
8.709446000E0,2.704575806E0,7.112758942E0,5.263953552E0,9.252852374E0
8.719399000E0,2.338886261E0,6.588399353E0,5.207969971E0,8.717817743E0
8.729353000E0,2.387984161E0,6.261479187E0,6.711144104E0,9.484094324E0
8.739306000E0,2.252815247E0,5.746699677E0,8.010292511E0,1.011259214E1
8.749259000E0,1.491947479E0,5.242697754E0,8.677604828E0,1.024756618E1
8.759213000E0,5.769003296E-1,5.513933716E0,9.094487915E0,1.065110273E1
8.769166000E0,-3.496728516E-1,6.148015137E0,8.729397125E0,1.068282432E1
8.779120000E0,-1.179996185E0,6.490802307E0,9.224866791E0,1.134112309E1
8.789073000E0,-1.151106262E0,6.328839111E0,9.546547852E0,1.151155185E1
8.799027000E0,-4.685256958E-2,6.225254517E0,8.964707794E0,1.091430139E1
8.808980000E0,8.029302979E-1,6.339017944E0,7.495213623E0,9.849166098E0
8.818933000E0,1.476080475E0,6.794670410E0,6.317462769E0,9.394503467E0
8.828887000E0,2.269879761E0,7.176226959E0,6.515650635E0,9.955113796E0
8.838840000E0,2.454745331E0,7.403454437E0,7.080875244E0,1.053450077E1
8.848794000E0,2.161505127E0,7.549101563E0,7.693401489E0,1.099315538E1
8.858747000E0,1.726958771E0,7.450456696E0,7.678282928E0,1.083732994E1
8.868701000E0,9.669891357E-1,7.114854584E0,7.223229218E0,1.018485464E1
8.878654000E0,2.770738220E-1,6.914271698E0,7.078330536E0,9.898822465E0
8.888607000E0,-5.626799011E-1,6.646777954E0,7.091054077E0,9.735466798E0
8.898561000E0,-1.444795532E0,6.398144989E0,6.681655426E0,9.363130495E0
8.908514000E0,-1.676363983E0,6.418951721E0,5.993536377E0,8.940671994E0
8.918468000E0,-1.393302612E0,6.683451691E0,5.858367462E0,8.996126277E0
8.928421000E0,-6.688092041E-1,7.022796021E0,5.789211273E0,9.125893757E0
8.938375000E0,1.749861145E-1,7.190447388E0,4.919070740E0,8.713805754E0
8.948328000E0,9.210346985E-1,7.327562256E0,4.879852295E0,8.851803881E0
8.958281000E0,1.336720276E0,7.379653931E0,4.891977081E0,8.954191923E0
8.968235000E0,1.358874207E0,7.168742523E0,4.746629333E0,8.704475774E0
8.978188000E0,1.298549652E0,6.704408112E0,4.316723328E0,8.078949165E0
8.988142000E0,1.306183777E0,6.315516815E0,3.810176697E0,7.490615139E0
8.998095000E0,1.484612732E0,6.139033813E0,3.124153290E0,7.046427812E0
9.008049000E0,1.757046204E0,6.231691132E0,3.761827240E0,7.488159314E0
9.018002000E0,2.090852051E0,6.290818176E0,5.348976746E0,8.518075361E0
9.027956000E0,2.502945099E0,6.433321838E0,7.023993530E0,9.848291687E0
9.037909000E0,2.951113129E0,6.881040802E0,8.452323303E0,1.129157033E1
9.047862000E0,2.935695190E0,6.738686829E0,9.368118896E0,1.190755466E1
9.057816000E0,2.943928070E0,6.723717957E0,9.608069916E0,1.209090994E1
9.067769000E0,2.848576355E0,6.786736908E0,9.428593140E0,1.196129398E1
9.077723000E0,2.120640106E0,6.663393402E0,8.535849609E0,1.103443042E1
9.087676000E0,1.299747162E0,6.417754211E0,7.843988342E0,1.021787967E1
9.097630000E0,1.117875366E0,6.460415497E0,7.621251526E0,1.005336205E1
9.107583000E0,1.810185699E0,7.321874084E0,7.577991486E0,1.069170554E1
9.117536000E0,3.191662903E0,6.685098267E0,5.988896027E0,9.525971160E0
9.127490000E0,4.730912018E0,6.156098328E0,6.623725891E0,1.020552888E1
9.137443000E0,5.635780334E0,6.657405853E0,7.475155334E0,1.148742878E1
9.147397000E0,4.450694733E0,6.293811951E0,7.478149109E0,1.073980757E1
9.157350000E0,1.773961029E0,5.073100433E0,7.747289429E0,9.428880062E0
9.167304000E0,-3.694317627E-1,4.836292877E0,8.630901947E0,9.900438225E0
9.177257000E0,-1.573827209E0,4.250261536E0,9.692494354E0,1.069981785E1
9.187210000E0,-1.837878113E0,4.611759796E0,1.035262161E1,1.148141536E1
9.197164000E0,-1.832040253E0,5.228776703E0,1.043809387E1,1.181737200E1
9.207117000E0,-2.019899597E0,5.423372040E0,9.217681732E0,1.088386949E1
9.217071000E0,-1.855990448E0,5.324577484E0,7.832761688E0,9.651320199E0
9.227024000E0,-9.205856323E-1,5.501509552E0,7.168892212E0,9.083341940E0
9.236978000E0,5.233117676E-1,5.411846008E0,6.987619171E0,8.853742378E0
9.246931000E0,1.552272034E0,5.576802979E0,6.604116669E0,8.782063362E0
9.256884000E0,2.105072479E0,6.043382721E0,6.223308563E0,8.926554449E0
9.266838000E0,2.374362488E0,5.953120422E0,7.035519562E0,9.517130633E0
9.276791000E0,1.815424805E0,5.581443329E0,7.335495758E0,9.394560920E0
9.286745000E0,1.434916077E0,5.119354248E0,7.233857117E0,8.977497471E0
9.296698000E0,1.656006317E0,4.941524048E0,7.076833649E0,8.788776441E0
9.306652000E0,2.083816681E0,5.183720398E0,6.780749359E0,8.785887035E0
9.316605000E0,2.609523468E0,5.473966827E0,6.304439850E0,8.747564654E0
9.326559000E0,2.520907745E0,5.135820007E0,5.742508392E0,8.106048707E0
9.336512000E0,2.333796844E0,5.128934326E0,4.612358551E0,7.281924638E0
9.346465000E0,2.271077271E0,4.869823151E0,4.383185120E0,6.934355145E0
9.356419000E0,2.517913971E0,4.995711365E0,5.827830963E0,8.078405569E0
9.366372000E0,3.171005859E0,5.312602386E0,8.684191132E0,1.066274814E1
9.376326000E0,3.178340607E0,5.719755707E0,1.110301117E1,1.288775820E1
9.386279000E0,2.959645386E0,6.307433624E0,1.164099243E1,1.356672122E1
9.396233000E0,2.643203430E0,6.605613556E0,1.105361389E1,1.314545682E1
9.406186000E0,2.612966309E0,6.676715698E0,9.641151123E0,1.201490410E1
9.416139000E0,2.850821686E0,6.794969788E0,9.489666138E0,1.201468111E1
9.426093000E0,2.668201447E0,6.608158264E0,9.671088867E0,1.201320167E1
9.436046000E0,2.262395325E0,6.314019928E0,9.536818085E0,1.165916718E1
9.446000000E0,1.807042236E0,6.014193420E0,8.581055603E0,1.063345849E1
9.455953000E0,1.570683746E0,5.756130066E0,7.228618011E0,9.372993072E0
9.465907000E0,1.641935577E0,5.589526520E0,6.549180908E0,8.765302603E0
9.475860000E0,2.036215668E0,5.347479858E0,6.524332581E0,8.678054546E0
9.485813000E0,2.327210541E0,5.074148254E0,6.696923676E0,8.718467533E0
9.495767000E0,2.322570190E0,5.027744751E0,6.744674377E0,8.727152000E0
9.505720000E0,2.277364197E0,5.116360474E0,6.825805664E0,8.829221661E0
9.515674000E0,2.265688477E0,5.101241913E0,6.377937012E0,8.475499623E0
9.525627000E0,2.328408051E0,5.133574677E0,6.424939270E0,8.547216952E0
9.535581000E0,2.539319458E0,5.152435455E0,5.672304382E0,8.072841596E0
9.545534000E0,2.713706818E0,5.618566132E0,6.342760162E0,8.897364584E0
9.555488000E0,2.631976776E0,5.649252319E0,7.590715027E0,9.821420882E0
9.565441000E0,2.738704834E0,5.617518311E0,9.128916321E0,1.106318803E1
9.575394000E0,2.580783234E0,5.528752899E0,1.033735336E1,1.200368382E1
9.585348000E0,2.115999756E0,5.532046051E0,1.046234344E1,1.202254627E1
9.595301000E0,1.393003235E0,5.372028809E0,9.987231445E0,1.142558285E1
9.605255000E0,1.194366302E0,5.585185547E0,9.213041382E0,1.083978505E1
9.615208000E0,9.532177734E-1,5.267246704E0,8.675509186E0,1.019396741E1
9.625162000E0,-4.420307922E-1,3.896098022E0,8.208330688E0,9.096794145E0
9.635115000E0,3.763174438E-1,6.343658295E0,7.581134949E0,9.892280955E0
9.645068000E0,1.993554382E0,7.143744507E0,7.928562469E0,1.085676966E1
9.655022000E0,3.287912750E0,7.087012482E0,8.579259338E0,1.160343945E1
9.664975000E0,4.316723328E0,7.356751556E0,8.658744049E0,1.215441246E1
9.674929000E0,4.421056366E0,7.525301056E0,8.230634308E0,1.199663438E1
9.684882000E0,3.365601196E0,7.768844604E0,7.298223267E0,1.117793723E1
9.694836000E0,2.291285248E0,7.963439941E0,6.616989899E0,1.060428777E1
9.704789000E0,1.477277985E0,7.974965973E0,6.181994476E0,1.019801393E1
9.714743000E0,1.162332916E0,7.355404358E0,6.764582977E0,1.006044601E1
9.724696000E0,1.190025330E0,6.660100250E0,7.282805328E0,9.940440085E0
9.734649000E0,1.419947205E0,6.435716858E0,7.746840363E0,1.017095065E1
9.744603000E0,2.125430145E0,6.283184052E0,7.619754639E0,1.010230250E1
9.754556000E0,2.957549744E0,6.559509430E0,6.816674652E0,9.911675830E0
9.764510000E0,2.921025696E0,7.425308990E0,5.643115082E0,9.773042134E0
9.774463000E0,2.415676575E0,7.622149658E0,5.321883087E0,9.604951760E0
9.784417000E0,1.714833984E0,7.184160461E0,5.628595276E0,9.286221078E0
9.794370000E0,1.303938446E0,6.912475433E0,6.068530426E0,9.290297822E0
9.804323000E0,1.308429108E0,6.708000641E0,6.970854034E0,9.762277670E0
9.814277000E0,1.357676697E0,6.682403870E0,7.681576080E0,1.027153438E1
9.824230000E0,1.261726227E0,6.964866486E0,8.523275757E0,1.107914924E1
9.834184000E0,8.261320496E-1,7.229216766E0,9.386380920E0,1.187637217E1
9.844137000E0,-5.560935974E-1,7.258855133E0,8.935668182E0,1.152590056E1
9.854091000E0,-2.123184814E0,7.251670074E0,8.117469635E0,1.108999305E1
9.864044000E0,-3.136876831E0,7.596403198E0,6.985224152E0,1.078604164E1
9.873997000E0,-3.452869720E0,7.477700043E0,6.546037445E0,1.052087988E1
9.883951000E0,-2.532284088E0,7.452851715E0,6.232888641E0,1.004023716E1
9.893904000E0,-9.997709656E-1,7.626191254E0,5.895041199E0,9.690709249E0
9.903858000E0,6.834786987E-1,7.670199738E0,5.520370331E0,9.474892914E0
9.913811000E0,1.950144653E0,7.760911102E0,5.572162628E0,9.751092332E0
9.923765000E0,2.279459839E0,7.989186401E0,6.128854980E0,1.032404474E1
9.933718000E0,2.123184814E0,8.162226562E0,5.978268127E0,1.033777278E1
9.943672000E0,1.653012543E0,8.262368317E0,6.601122894E0,1.070392471E1
9.953625000E0,1.075663147E0,8.285570068E0,6.908882904E0,1.084160438E1
9.963578000E0,6.571334839E-2,8.307424622E0,6.998995514E0,1.086294437E1
9.973532000E0,-6.474037170E-1,8.559500427E0,5.985303497E0,1.046460879E1
9.983485000E0,-2.631527710E-1,9.010662231E0,4.902754669E0,1.026149534E1
9.993439000E0,6.607260132E-1,8.804540863E0,4.891078949E0,1.009352030E1
1.000339200E1,1.067280579E0,8.564589844E0,4.756508789E0,9.854727946E0
1.001334600E1,7.903564453E-1,8.446635132E0,4.329147491E0,9.524275635E0
1.002329900E1,1.793270874E-1,8.141569519E0,4.266278229E0,9.193391233E0
1.003325300E1,-8.846603394E-2,7.796836395E0,3.966900787E0,8.748416192E0
1.004320600E1,-1.642085266E-1,7.584128723E0,3.644770660E0,8.416075457E0
1.005315900E1,-5.523513794E-2,7.338190155E0,3.626209259E0,8.185443132E0
1.006311300E1,-4.041595459E-3,6.941215668E0,2.993025970E0,7.559014204E0
1.007306600E1,4.456233215E-1,6.747368774E0,2.881058807E0,7.350242538E0
1.008302000E1,3.626957703E-1,6.279741211E0,2.079026642E0,6.624881107E0
1.009297300E1,1.445993042E-1,6.177803192E0,2.223775635E0,6.567445418E0
1.010292700E1,2.071691895E-1,6.205196228E0,3.009042664E0,6.899399760E0
1.011288000E1,8.367599487E-2,6.097570038E0,3.009342041E0,6.800257463E0
1.012283300E1,9.220825195E-2,6.144871674E0,2.081271973E0,6.488423789E0
1.013278700E1,5.638774109E-1,6.178102570E0,2.651436310E0,6.746630537E0
1.014274000E1,1.307381287E0,6.250851288E0,4.639452209E0,7.893472269E0
1.015269400E1,2.025887146E0,6.538403320E0,6.941215668E0,9.748610755E0
1.016264700E1,2.311792603E0,7.265890503E0,8.302933960E0,1.127281075E1
1.017260100E1,2.245031433E0,6.916367340E0,7.786807251E0,1.065413866E1
1.018255400E1,1.520088959E0,6.904392242E0,7.407645721E0,1.023984950E1
1.019250800E1,2.806663513E-1,7.599846039E0,8.017028503E0,1.105030223E1
1.020246100E1,-4.849914551E-1,7.596253510E0,8.488697662E0,1.140159077E1
1.021241400E1,-7.679031372E-1,7.091802521E0,8.744216309E0,1.128470899E1
1.022236800E1,-6.738986206E-1,6.412066040E0,8.783883820E0,1.089611606E1
1.023232100E1,1.826202393E-2,5.607339478E0,8.963659973E0,1.057306907E1
1.024227500E1,9.249266052E-1,5.913602600E0,8.797954559E0,1.064096750E1
1.025222800E1,1.255289612E0,8.174800415E0,9.659413147E0,1.271642152E1
1.026218200E1,1.479223938E0,6.747668152E0,7.331903229E0,1.007352639E1
1.027213500E1,8.054750061E-1,4.907993774E0,6.807244263E0,8.430644538E0
1.028208900E1,2.914439392E-1,5.269791412E0,8.836274872E0,1.029249215E1
1.029204200E1,4.640350342E-2,5.068460083E0,9.633367310E0,1.088545849E1
1.030199500E1,-1.722917175E-1,5.116959229E0,1.085407883E1,1.200099927E1
1.031194900E1,-4.281097412E-2,4.774471436E0,1.136870865E1,1.233065070E1
1.032190200E1,2.035766602E-2,5.040917358E0,1.084883972E1,1.196280007E1
1.033185600E1,3.975732422E-1,5.150639191E0,9.583820343E0,1.088745888E1
1.034180900E1,3.838018799E-1,5.278323669E0,8.741072845E0,1.021833446E1
1.035176337E1,7.698490906E-1,5.507347412E0,7.715705109E0,9.510817445E0
1.036171637E1,1.420246582E0,5.585634613E0,6.892117767E0,8.984303073E0
1.037166937E1,2.429298248E0,5.815107422E0,6.217770081E0,8.853114090E0
1.038162337E1,3.473077698E0,6.008355560E0,8.441545715E0,1.092805103E1
1.039157637E1,3.204236755E0,5.434748383E0,1.175520493E1,1.334123180E1
1.040153038E1,1.207389221E0,4.768633575E0,1.547721497E1,1.624013048E1
1.041148338E1,-1.121318207E0,4.409380646E0,1.547556839E1,1.613050555E1
1.042143738E1,-1.040635986E0,4.614454193E0,1.433913162E1,1.509923198E1
1.043139038E1,-4.462220764E-1,4.252357178E0,1.216250793E1,1.289217805E1
1.044134438E1,-6.174659729E-1,4.189338226E0,9.401948547E0,1.031156901E1
1.045129738E1,-1.219963074E-1,4.262536011E0,7.635471954E0,8.745543340E0
1.046125038E1,9.252259827E-1,4.341571655E0,7.006629639E0,8.294464808E0
1.047120438E1,1.783092041E0,4.619393921E0,7.435637512E0,8.933472037E0
1.048115737E1,2.398312683E0,5.010081482E0,8.298592987E0,9.985963436E0
1.049111137E1,2.448009338E0,4.968767395E0,8.784482574E0,1.038501484E1
1.050106437E1,1.919907532E0,4.593946838E0,8.322094116E0,9.697816402E0
1.051101837E1,1.364113312E0,4.231251068E0,8.153843994E0,9.287058878E0
1.052097137E1,1.114133148E0,4.219126282E0,9.070537720E0,1.006563330E1
1.053092537E1,1.370849304E0,4.630770264E0,1.000728973E1,1.111166544E1
1.054087837E1,2.009122009E0,5.062472534E0,1.006970993E1,1.144832990E1
1.055083137E1,3.320095825E0,5.663622437E0,8.870553589E0,1.103568649E1
1.056078537E1,4.109554138E0,5.676795044E0,7.699389038E0,1.041129333E1
1.057073837E1,3.510499878E0,4.941074982E0,7.298822021E0,9.487393439E0
1.058069237E1,2.397264862E0,3.922143860E0,7.821085968E0,9.071905919E0
1.059064537E1,1.256786499E0,3.791465607E0,8.982820129E0,9.830858621E0
1.060059937E1,9.491761780E-1,3.750151520E0,1.195279404E1,1.256319454E1
1.061055237E1,1.645677795E0,3.554508362E0,1.285451889E1,1.343805942E1
1.062050637E1,2.376907196E0,3.812871094E0,1.277937515E1,1.354622099E1
1.063045937E1,3.043321381E0,4.708159332E0,1.054691757E1,1.194428899E1
1.064041237E1,3.858825531E0,6.038892059E0,7.255711670E0,1.019824022E1
1.065036637E1,4.043092346E0,5.874234467E0,6.458170166E0,9.620872527E0
1.066031937E1,2.846181335E0,4.997807007E0,6.610403595E0,8.762206272E0
1.067027337E1,2.004631348E0,4.492906952E0,7.994425507E0,9.386990940E0
1.068022637E1,2.181264038E0,4.750670929E0,9.000184021E0,1.040817465E1
1.069018038E1,2.464924164E0,4.903054047E0,9.055568848E0,1.058863151E1
1.070013338E1,1.681453400E0,4.424648895E0,8.846603394E0,1.003330429E1
1.071008738E1,-3.158432007E-2,4.513713684E0,7.927814026E0,9.122765152E0
1.072004038E1,-1.075214081E0,4.761598206E0,7.737559662E0,9.148701127E0
1.072999338E1,-1.128802643E0,5.212610321E0,7.404352570E0,9.125236366E0
1.073994738E1,-2.508782959E-1,5.654491425E0,6.828500061E0,8.869308106E0
1.074990038E1,6.038442993E-1,6.251300354E0,5.845344543E0,8.579710769E0
1.075985437E1,1.857637024E-1,6.130950623E0,4.700076141E0,7.727469147E0
1.076980737E1,-8.316705322E-1,6.460714874E0,4.236190796E0,7.770316919E0
1.077976137E1,-1.251846771E0,6.781497803E0,4.709656219E0,8.350849926E0
1.078971437E1,-2.778222656E-1,7.000193024E0,4.313280487E0,8.227045408E0
1.079966837E1,5.956114197E-1,7.605384521E0,5.015320587E0,9.129625801E0
1.080962137E1,6.589297485E-1,7.224726105E0,5.814358978E0,9.297183769E0
1.081957437E1,7.349716187E-1,6.702312469E0,7.051985321E0,9.756621992E0
1.082952837E1,1.291663971E0,6.033054199E0,1.092757599E1,1.254902609E1
1.083948137E1,2.181862793E0,5.838758240E0,1.439286987E1,1.568458881E1
1.084943537E1,2.131717072E0,5.523663483E0,1.499686386E1,1.612330616E1
1.085938837E1,2.055525513E0,5.426216125E0,1.286604492E1,1.411396891E1
1.086934237E1,1.510808258E0,5.717360687E0,1.043330383E1,1.199268876E1
1.087929537E1,1.719474335E0,6.127507782E0,9.568552094E0,1.149174194E1
1.088924837E1,2.198029175E0,6.601422272E0,9.141490173E0,1.148812216E1
1.089920237E1,2.620301056E0,7.106771393E0,7.519762573E0,1.067328471E1
1.090915537E1,2.597099304E0,7.508236542E0,6.483168182E0,1.025426791E1
1.091910937E1,2.067949677E0,7.589816895E0,6.490053864E0,1.019816334E1
1.092906237E1,1.238674164E0,6.524182892E0,5.395230560E0,8.556155030E0
1.093901637E1,6.462062073E-1,6.127507782E0,4.627028046E0,7.705408660E0
1.094896937E1,6.018983459E-1,6.221063232E0,3.074756012E0,6.965488776E0
1.095892338E1,1.285526733E0,5.937852173E0,4.367018738E0,7.482079929E0
1.096887638E1,2.281555481E0,7.052434387E0,6.568790131E0,9.904106723E0
1.097882938E1,3.519481201E0,7.416776733E0,6.097120972E0,1.022595762E1
1.098878338E1,3.717369690E0,7.336842957E0,5.258115692E0,9.761961002E0
1.099873638E1,2.560575256E0,6.797813873E0,4.570296021E0,8.582215612E0
1.100869038E1,1.014141083E0,5.599106598E0,3.747307434E0,6.813280402E0
1.101864338E1,-5.763015747E-2,4.691843262E0,3.573818207E0,5.898210831E0
1.102859738E1,-2.908451843E-1,4.367467804E0,3.226989441E0,5.438090363E0
1.103855038E1,-7.439529419E-2,4.325105896E0,2.377056885E0,4.935835806E0
1.104850437E1,2.243833923E-1,4.059109039E0,2.581831055E0,4.815866038E0
1.105845737E1,2.818638611E-1,3.488046570E0,4.296215973E0,5.541063778E0
1.106841037E1,1.130149841E-1,3.187621307E0,7.045548706E0,7.733916120E0
1.107836437E1,-3.616479492E-1,3.332370300E0,1.048808990E1,1.101069984E1
1.108831737E1,-7.807763672E-1,3.903582458E0,1.191701843E1,1.256435020E1
1.109827137E1,-1.339714050E0,3.418740692E0,1.225202179E1,1.279041280E1
1.110822437E1,-1.018781433E0,3.462150421E0,1.244392273E1,1.295668222E1
1.111817837E1,-1.187031555E0,4.031566315E0,1.249406845E1,1.318196940E1
1.112813137E1,-5.846841431E-1,4.270469513E0,1.224633362E1,1.298273671E1
1.113808537E1,6.596781921E-1,4.499493256E0,1.072145462E1,1.164603813E1
1.114803837E1,1.652413788E0,4.511318665E0,7.468119965E0,8.880049731E0
1.115799137E1,2.228415985E0,4.816533966E0,5.957461395E0,7.978482533E0
1.116794537E1,2.878813477E0,3.848946075E0,8.594377899E0,9.847095226E0
1.117789837E1,3.753744049E0,2.774330750E0,1.132874176E1,1.225266891E1
1.118785237E1,3.241808624E0,1.623224487E0,1.184142563E1,1.238400346E1
1.119780537E1,8.634045410E-1,-5.243595886E-1,1.190698929E1,1.194976210E1
1.120775937E1,-1.832040253E0,1.645528107E0,1.130808472E1,1.157311169E1
1.121771237E1,-2.301015015E0,2.575095062E0,1.091335556E1,1.144670757E1
1.122766637E1,2.796185303E-1,2.504891052E0,1.007988876E1,1.039022729E1
1.123761937E1,2.074835358E0,1.003064117E0,9.176217957E0,9.461186784E0
1.124757237E1,-3.113525391E-1,1.013542328E0,9.995015259E0,1.005109638E1
1.125752638E1,-7.676037598E-1,1.019080811E0,1.107187592E1,1.114514143E1
1.126747938E1,-1.175206146E0,1.738035736E0,1.092667786E1,1.112628270E1
1.127743338E1,-1.628313904E0,2.905458069E0,1.065095123E1,1.115956338E1
1.128738638E1,-7.415579224E-1,4.016896820E0,9.871222687E0,1.068299609E1
1.129734038E1,7.861651611E-1,4.626129913E0,8.874744873E0,1.003893571E1
1.130729338E1,1.930236053E0,3.607498169E0,8.301736450E0,9.255197586E0
1.131724738E1,1.732347565E0,1.919608154E0,8.845854950E0,9.216022642E0
1.132720038E1,4.516108704E-1,1.104702759E-1,1.024559418E1,1.025613748E1
1.133715338E1,-5.577401733E-1,-8.484356689E-1,1.093985046E1,1.098686695E1
1.134710737E1,-7.948471069E-1,-5.722599792E-1,1.134356094E1,1.138576472E1
1.135706042E1,-1.086141357E0,-7.529342651E-2,1.082414108E1,1.087875923E1
1.136701442E1,-1.315913544E0,4.930746460E-1,1.007704468E1,1.017455554E1
1.137696742E1,-5.893244934E-1,1.323248291E0,9.374555511E0,9.485809424E0
1.138692142E1,9.880952454E-1,2.103425903E0,9.131610718E0,9.422687889E0
1.139687442E1,2.056723022E0,2.496807861E0,9.482331390E0,1.001892048E1
1.140682742E1,2.524200897E0,3.202141113E0,9.960287476E0,1.076255660E1
1.141678142E1,2.000440063E0,3.568130035E0,1.003632935E1,1.083795272E1
1.142673442E1,1.296304321E0,2.863994293E0,1.030517029E1,1.077401517E1
1.143668842E1,6.306385803E-1,2.374512177E0,1.107337280E1,1.134264512E1
1.144664142E1,2.309696960E-1,2.153571625E0,1.082054855E1,1.103519319E1
1.145659542E1,3.679348755E-1,2.368674316E0,1.086665268E1,1.112789893E1
1.146654842E1,2.713856506E-1,2.517614594E0,1.137963593E1,1.165796497E1
1.147650242E1,6.698570251E-1,2.669398956E0,9.742939453E0,1.012419223E1
1.148645542E1,1.190324707E0,2.746638336E0,8.979077911E0,9.464921299E0
1.149640842E1,1.387614441E0,2.501148834E0,9.770931244E0,1.018097818E1
1.150636242E1,9.321116638E-1,1.727258148E0,1.098580490E1,1.115975637E1
1.151631542E1,9.699829102E-1,1.546134796E0,1.073387878E1,1.088795451E1
1.152626942E1,1.047371979E0,1.588496704E0,9.795031128E0,9.978123302E0
1.153622242E1,1.696871338E0,2.051334229E0,9.436676331E0,9.805009160E0
1.154617642E1,2.079026642E0,2.679278412E0,9.462722168E0,1.005206424E1
1.155612942E1,1.433119812E0,2.798879700E0,9.647587738E0,1.014709363E1
1.156608342E1,5.090913391E-1,2.784808960E0,1.044003983E1,1.081705905E1
1.157603642E1,-6.834786987E-1,2.746039581E0,1.153770721E1,1.187967021E1
1.158598942E1,-1.964215393E0,2.329006805E0,1.286948776E1,1.322520813E1
1.159594342E1,-2.816093903E0,2.010169830E0,1.420111862E1,1.461652961E1
1.160589642E1,-2.647394714E0,2.155367889E0,1.373199417E1,1.414998139E1
1.161585042E1,-1.525926819E0,2.325414276E0,1.389350830E1,1.416917701E1
1.162580342E1,-1.367256775E0,2.400857391E0,1.214574280E1,1.245602567E1
1.163575742E1,-8.102650452E-1,2.436183929E0,1.116647919E1,1.145782610E1
1.164571042E1,-5.182223511E-1,2.299967194E0,1.146016846E1,1.170016515E1
1.165566442E1,-2.535726929E-1,2.618654480E0,1.106648712E1,1.137491924E1
1.166561742E1,8.497828674E-1,4.140839081E0,1.036384827E1,1.119276687E1
1.167557042E1,3.682342529E-1,4.219874725E0,1.010234207E1,1.095446277E1
1.168552442E1,9.295669556E-2,4.402195587E0,9.756710815E0,1.070426891E1
1.169547742E1,-1.050814819E-1,4.356241150E0,9.103768616E0,1.009289265E1
1.170543142E1,-6.050418091E-1,4.336631927E0,8.412057037E0,9.483414768E0
1.171538442E1,-1.217717743E0,4.243226166E0,8.150850220E0,9.269528796E0
1.172533842E1,-1.192120972E0,3.997886353E0,8.111182709E0,9.121158514E0
1.173529142E1,-1.498533783E0,4.387675781E0,8.776998138E0,9.926378926E0
1.174524542E1,-1.888772278E0,4.171375580E0,8.803642731E0,9.923303899E0
1.175519842E1,-1.422342224E0,3.936813354E0,8.308622131E0,9.303480989E0
1.176515142E1,-5.789959717E-1,3.459456024E0,7.942633209E0,8.682654814E0
1.177510542E1,3.237767029E-1,3.129093018E0,6.703509979E0,7.404937576E0
1.178505842E1,1.274599457E0,3.222648468E0,5.548212433E0,6.541615101E0
1.179501242E1,1.648222504E0,3.912863159E0,5.074747009E0,6.616660240E0
1.180496542E1,2.075434113E0,4.129612427E0,6.003565521E0,7.576537766E0
1.181491942E1,2.186952209E0,3.956871643E0,7.434589691E0,8.701305479E0
1.182487242E1,2.275867310E0,4.339326324E0,7.805069275E0,9.215662285E0
1.183482642E1,2.027234344E0,4.641398163E0,7.254514160E0,8.847611638E0
1.184477942E1,1.940863953E0,3.996389465E0,8.818312225E0,9.874244890E0
1.185473242E1,1.439257050E0,3.614683228E0,8.821904755E0,9.641752911E0
1.186468642E1,1.025517426E0,3.660787354E0,8.065677338E0,8.916737125E0
1.187463942E1,1.597178650E-1,3.539090424E0,7.209607544E0,8.033001417E0
1.188459342E1,-1.160237274E0,3.693868561E0,6.324348450E0,7.415402807E0
1.189454642E1,-1.247505798E0,3.626059570E0,4.436923370E0,5.864372747E0
1.190450042E1,-9.026229858E-2,3.912264404E0,1.690734100E0,4.262926442E0
1.191445342E1,2.564317474E0,4.613855438E0,3.237767029E0,6.192456818E0
1.192440642E1,5.212610321E0,5.145400085E0,6.184239807E0,9.585993448E0
1.193436042E1,7.600744171E0,5.993536377E0,6.356531525E0,1.158012449E1
1.194431342E1,7.633076935E0,6.483617249E0,6.701713715E0,1.205048227E1
1.195426742E1,4.971910858E0,5.904172211E0,9.010362854E0,1.186447579E1
1.196422042E1,8.873547363E-1,5.261558533E0,9.308243408E0,1.072915616E1
1.197417442E1,-2.192041626E0,5.551056519E0,1.022553589E1,1.183979979E1
1.198412742E1,-2.763702850E0,6.467750244E0,1.063972458E1,1.275435556E1
1.199408142E1,-8.903485107E-1,7.764204254E0,7.872878265E0,1.109314204E1
1.200403442E1,2.851270752E0,7.880063324E0,7.928562469E0,1.153634456E1
1.201398742E1,3.601959686E0,5.276826782E0,7.322921906E0,9.718240566E0
1.202394142E1,3.638633423E0,2.739004211E0,6.306385803E0,7.778965173E0
1.203389442E1,3.628903656E0,2.509082336E0,6.646179199E0,7.977225950E0
1.204384842E1,1.988165588E0,3.338357849E0,5.917045441E0,7.078761352E0
1.205380142E1,1.117725677E0,3.179538116E0,6.341862030E0,7.181781627E0
1.206375542E1,2.395318909E0,4.823419647E0,6.782845001E0,8.660826524E0
1.207370842E1,2.511627045E0,2.461032257E0,7.123087463E0,7.943760142E0
1.208366242E1,1.639690247E0,4.660857697E0,8.580157471E0,9.901074729E0
1.209361542E1,1.382375336E0,6.785988464E0,1.009470795E1,1.224188423E1
1.210356842E1,1.216370544E0,1.977088623E0,1.165251846E1,1.188148237E1
1.211352242E1,-1.463955688E-1,8.366102600E-1,1.248089584E1,1.250976057E1
1.212347542E1,-5.249583435E-1,1.943258972E0,1.205428299E1,1.222119369E1
1.213342942E1,-6.625222778E-1,1.774559784E0,1.200683167E1,1.215532825E1
1.214338242E1,-9.330097961E-1,1.834435272E0,1.261441818E1,1.278120519E1
1.215333642E1,-1.418150940E0,1.625020752E0,1.180505127E1,1.200046166E1
1.216328942E1,-2.559228058E0,1.160686340E0,1.100990479E1,1.136287131E1
1.217324342E1,-3.039279785E0,6.944059753E-1,1.078731766E1,1.122878638E1
1.218319642E1,-2.284399567E0,5.941145325E-1,1.107232498E1,1.132112335E1
1.219314942E1,3.110531616E-1,1.400936737E0,1.141586060E1,1.150570515E1
1.220310342E1,2.397564240E0,3.649560699E0,1.029139893E1,1.117946776E1
1.221305642E1,3.330574036E0,5.082530823E0,9.038204956E0,1.089100509E1
1.222301042E1,3.526217194E0,4.633165283E0,9.686057739E0,1.130133367E1
1.223296342E1,2.891836395E0,3.643722839E0,9.695787506E0,1.075396342E1
1.224291742E1,2.647394714E0,2.340233459E0,9.471553802E0,1.010919002E1
1.225287042E1,2.353256378E0,1.170565796E0,8.979377289E0,9.356134691E0
1.226282342E1,1.859133911E0,1.416055298E-1,9.186696167E0,9.373996879E0
1.227277742E1,1.473685455E0,-3.321592712E-1,1.016685791E1,1.027847646E1
1.228273042E1,9.973759460E-1,-6.677613831E-1,9.591903534E0,9.666709753E0
1.229268442E1,1.034648438E0,-8.857081604E-1,9.721384277E0,9.816327654E0
1.230263742E1,1.136586456E0,-5.180726624E-1,9.129664764E0,9.214716858E0
1.231259142E1,1.172362061E0,-4.936734009E-1,9.447453918E0,9.532708522E0
1.232254442E1,1.231040039E0,6.418652344E-1,9.190139008E0,9.294412598E0
1.233249842E1,1.163081360E0,1.750010834E0,9.100176086E0,9.339619959E0
1.234245142E1,1.056952057E0,2.404000854E0,9.840237122E0,1.018462736E1
1.235240667E1,1.930834808E0,2.645897827E0,9.732760620E0,1.026915418E1
1.236236067E1,-7.903564453E-2,6.354286194E-1,9.061257019E0,9.083853529E0
1.237231367E1,4.746629333E-1,2.781216431E-1,9.633816376E0,9.649511620E0
1.238226767E1,-5.084925842E-1,-8.590635681E-1,1.091515182E1,1.096070683E1
1.239222067E1,-2.963836670E-2,-1.047821045E0,1.172391998E1,1.177068847E1
1.240217467E1,2.163451080E0,-6.568341064E-1,1.294373337E1,1.313971785E1
1.241212767E1,1.913620605E0,-5.310955811E-1,1.259585678E1,1.275145538E1
1.242208167E1,9.955796814E-1,-6.722520447E-1,1.153516251E1,1.159754611E1
1.243203467E1,9.963281250E-1,7.783813477E-2,9.513167267E0,9.565515143E0
1.244198767E1,1.646725616E0,6.590794373E-1,8.953331451E0,9.127334498E0
1.245194167E1,2.018851776E0,9.768685913E-1,9.450298004E0,9.712783695E0
1.246189467E1,1.423240356E0,1.089584198E0,1.036564453E1,1.051947686E1
1.247184867E1,1.119971008E0,1.235830078E0,1.088551346E1,1.101253896E1
1.248180167E1,5.023553467E-1,1.885179749E0,9.798024902E0,9.990373144E0
1.249175567E1,7.050338745E-2,2.609972534E0,1.056517960E1,1.088301186E1
1.250170867E1,5.996530151E-1,2.894979858E0,1.095781311E1,1.134963261E1
1.251166167E1,4.303550720E-1,3.666774902E0,1.022284149E1,1.086908146E1
1.252161567E1,1.209484863E-1,4.382885742E0,9.243877258E0,1.023101084E1
1.253156867E1,2.769241333E-1,4.875810699E0,8.504564667E0,9.807029985E0
1.254152267E1,6.749464417E-1,4.906347198E0,8.707093506E0,1.001704911E1
1.255147567E1,1.427431641E0,5.204976196E0,9.493108978E0,1.092009416E1
1.256142967E1,2.023941193E0,5.417833557E0,1.014440460E1,1.167725152E1
1.257138267E1,2.065554657E0,5.563031616E0,1.045680496E1,1.202325276E1
1.258133667E1,1.707050171E0,5.390739899E0,1.002809647E1,1.151246349E1
1.259128967E1,1.030457153E0,5.191803589E0,9.950108643E0,1.127037393E1
1.260124267E1,7.533833313E-1,4.886438599E0,1.002570145E1,1.117853113E1
1.261119667E1,5.291496277E-1,4.409081268E0,8.741521912E0,9.804805061E0
1.262114967E1,7.508386230E-1,3.911965027E0,8.035739594E0,8.968853875E0
1.263110367E1,1.185085602E0,3.673810272E0,8.072413330E0,8.947914102E0
1.264105667E1,8.035290527E-1,3.807332611E0,8.416398010E0,9.272388906E0
1.265101067E1,3.835025024E-1,3.696712646E0,8.045020294E0,8.862003729E0
1.266096367E1,1.201701050E0,4.148323517E0,7.245682526E0,8.435199386E0
1.267091667E1,1.806293793E0,4.741090851E0,6.510860596E0,8.254207740E0
1.268087067E1,2.826123047E0,4.546046448E0,5.917644196E0,7.979475083E0
1.269082367E1,3.780987396E0,4.702022095E0,6.009253693E0,8.515633119E0
1.270077767E1,4.194427643E0,5.124743042E0,6.719676361E0,9.434525155E0
1.271073067E1,4.085603943E0,5.358556824E0,7.291936340E0,9.928676971E0
1.272068467E1,3.326682129E0,5.297633514E0,7.341034241E0,9.644818223E0
1.273063767E1,2.433938599E0,5.201832733E0,7.071145477E0,9.109567457E0
1.274059167E1,1.991758118E0,5.117408295E0,6.543193359E0,8.542151216E0
1.275054467E1,2.097588043E0,5.185816040E0,6.187832336E0,8.341572551E0
1.276049767E1,2.375859375E0,5.463638306E0,5.791157227E0,8.308643290E0
1.277045167E1,2.628983002E0,5.522915039E0,5.351072388E0,8.126999314E0
1.278040467E1,2.692301331E0,5.146447906E0,5.434299316E0,7.953994064E0
1.279035867E1,2.242337036E0,5.001249847E0,6.539600830E0,8.532699130E0
1.280031167E1,1.633403320E0,4.957690430E0,6.899602203E0,8.651659457E0
1.281026567E1,1.227896576E0,4.809049530E0,6.357130280E0,8.065221186E0
1.282021867E1,1.030008087E0,4.784051514E0,5.403164062E0,7.289872937E0
1.283017167E1,1.427880707E0,4.881648560E0,6.468049622E0,8.228304921E0
1.284012567E1,2.668949890E0,5.599405975E0,7.738158417E0,9.917446066E0
1.285007867E1,3.123105469E0,5.021457825E0,7.427105255E0,9.493719973E0
1.286003267E1,2.170037384E0,4.808301086E0,7.976462860E0,9.563094758E0
1.286998567E1,1.289119263E0,5.052593079E0,7.909701691E0,9.473853816E0
1.287993967E1,9.210346985E-1,4.658163300E0,7.222929840E0,8.643928836E0
1.288989267E1,1.309177551E0,4.966222687E0,6.745123444E0,8.477853732E0
1.289984567E1,2.468965759E0,5.234464874E0,6.830745392E0,8.952904392E0
1.290979967E1,3.586242371E0,4.925058289E0,6.872508545E0,9.184155224E0
1.291975267E1,3.903133392E0,5.354814606E0,7.033872986E0,9.663532425E0
1.292970667E1,3.513343964E0,5.121599579E0,6.720574493E0,9.150982984E0
1.293965967E1,2.854414215E0,5.354515228E0,7.423213348E0,9.587627979E0
1.294961367E1,1.832189941E0,5.557642822E0,8.515491943E0,1.033237227E1
1.295956667E1,1.218466187E0,4.341871033E0,8.389603729E0,9.524807329E0
1.296952067E1,9.395960999E-1,3.072061615E0,8.219257965E0,8.824772229E0
1.297947367E1,8.493338013E-1,2.850821686E0,7.757617950E0,8.308380616E0
1.298942667E1,8.904981995E-1,3.029699707E0,6.715784454E0,7.421174314E0
1.299938067E1,1.253643036E0,2.011816406E0,6.541247406E0,6.957509881E0
1.300933367E1,1.603166199E0,2.032024384E0,7.870333557E0,8.285011482E0
1.301928767E1,1.622326355E0,2.452350311E0,8.320148163E0,8.824445042E0
1.302924067E1,1.820514221E0,3.291804657E0,8.630303192E0,9.414477315E0
1.303919467E1,2.088906097E0,3.929029541E0,8.692723389E0,9.765461675E0
1.304914767E1,2.320474548E0,4.182003479E0,8.885821838E0,1.009116371E1
1.305910067E1,1.982028351E0,4.630171509E0,9.437275085E0,1.069715316E1
1.306905467E1,1.246607666E0,4.888534241E0,9.853260040E0,1.106971233E1
1.307900767E1,1.014590149E0,5.293591919E0,9.919422455E0,1.128921833E1
1.308896167E1,1.520987091E0,5.806724854E0,9.719288635E0,1.142348576E1
1.309891467E1,2.056423645E0,5.976771240E0,9.613608398E0,1.150530917E1
1.310886867E1,2.098186798E0,5.999972992E0,9.233099670E0,1.120946891E1
1.311882167E1,1.868564301E0,5.809269562E0,8.495583344E0,1.046011863E1
1.312877467E1,1.869163055E0,5.551804962E0,7.898475037E0,9.833728528E0
1.313872867E1,2.240690460E0,5.527555389E0,7.529941406E0,9.605965850E0
1.314868167E1,2.572400665E0,5.551056519E0,7.213050385E0,9.458306905E0
1.315863567E1,2.737357635E0,5.405559082E0,7.327861633E0,9.508456864E0
1.316858867E1,2.794389038E0,5.223687286E0,7.808362427E0,9.801328622E0
1.317854267E1,3.163521423E0,5.229974213E0,8.206235046E0,1.023243821E1
1.318849567E1,3.322041779E0,5.447471924E0,8.583001556E0,1.069480377E1
1.319844867E1,3.765120392E0,5.913153534E0,8.611143036E0,1.110375165E1
1.320840267E1,3.673959961E0,6.243666229E0,8.090375977E0,1.085981276E1
1.321835567E1,3.415896606E0,6.354286194E0,7.493866425E0,1.040208328E1
1.322830967E1,3.320095825E0,6.258335724E0,6.809938660E0,9.826752611E0
1.323826267E1,3.165018311E0,6.017636261E0,6.963968353E0,9.732735602E0
1.324821667E1,2.990930328E0,6.016438751E0,7.272776184E0,9.901336925E0
1.325816967E1,2.272125092E0,6.273753662E0,7.010970612E0,9.678648995E0
1.326812267E1,2.196232910E0,6.747518463E0,8.030051422E0,1.071607065E1
1.327807667E1,1.476080475E0,6.811585236E0,7.759114838E0,1.042978284E1
1.328802967E1,1.360820160E0,6.808741150E0,7.301366730E0,1.007575028E1
1.329798367E1,2.401456146E0,6.960525513E0,6.671326904E0,9.935920174E0
1.330793667E1,2.673141174E0,6.844067688E0,5.625900879E0,9.254064348E0
1.331789067E1,2.675087128E0,6.352190552E0,6.074517975E0,9.187283852E0
1.332784367E1,2.962639160E0,5.655838623E0,6.720275116E0,9.269727016E0
1.333779667E1,2.808010712E0,4.833149414E0,7.335046692E0,9.222102113E0
1.334775067E1,2.927312622E0,4.187392273E0,8.396040344E0,9.828372536E0
1.335770112E1,2.768343201E0,3.788771210E0,8.587492218E0,9.785884424E0
1.336765512E1,2.552941132E0,3.450325012E0,9.154513092E0,1.011075472E1
1.337760812E1,2.466720428E0,3.194956055E0,1.010563522E1,1.088192617E1
1.338756212E1,2.361189880E0,3.075055389E0,1.040127045E1,1.110034280E1
1.339751512E1,2.250719604E0,3.056643677E0,1.034169434E1,1.101632657E1
1.340746812E1,2.040257263E0,3.202440491E0,9.931696930E0,1.063282083E1
1.341742212E1,2.109413452E0,3.503015442E0,9.580377502E0,1.041654335E1
1.342737513E1,2.063758392E0,3.876039734E0,9.530381470E0,1.049337666E1
1.343732913E1,1.683998108E0,3.960464172E0,9.544003143E0,1.046943752E1
1.344728213E1,1.626367950E0,4.055516510E0,9.711804199E0,1.064948016E1
1.345723613E1,1.434317322E0,3.985162811E0,9.946067047E0,1.081032093E1
1.346718913E1,1.344803467E0,3.866160278E0,9.756561127E0,1.058046203E1
1.347714213E1,1.262474670E0,3.850892029E0,9.564211121E0,1.038736473E1
1.348709613E1,1.201401672E0,3.866160278E0,9.272018738E0,1.011735602E1
1.349704913E1,1.507664795E0,3.850442963E0,9.046886902E0,9.947116505E0
1.350700312E1,2.161205750E0,4.091591492E0,9.058263245E0,1.017172867E1
1.351695612E1,1.945803680E0,4.001778259E0,9.171278229E0,1.019375915E1
1.352691012E1,2.018103333E0,3.881727905E0,9.076225891E0,1.007563542E1
1.353686312E1,2.049238586E0,3.954925690E0,8.813671875E0,9.875303940E0
1.354681612E1,1.871857452E0,3.674708405E0,8.665929108E0,9.597169347E0
1.355677012E1,1.817221069E0,3.617377625E0,8.320297852E0,9.252841165E0
1.356672312E1,2.204016724E0,4.025129700E0,8.280630341E0,9.467216996E0
1.357667712E1,2.555036774E0,4.217779083E0,8.378077698E0,9.721628424E0
1.358663012E1,2.480641479E0,4.347559204E0,8.272846527E0,9.669273129E0
1.359658412E1,2.312241669E0,4.337679749E0,8.505462799E0,9.823686913E0
1.360653712E1,2.005679169E0,4.332889709E0,9.128018188E0,1.030132992E1
1.361649012E1,2.134561157E0,4.328848114E0,9.398056641E0,1.056497733E1
1.362644412E1,2.256856842E0,4.651277618E0,9.128616943E0,1.049092148E1
1.363639712E1,2.421664124E0,4.696333923E0,8.613987122E0,1.010548285E1
1.364635112E1,2.559677124E0,5.095703430E0,8.066276093E0,9.878408294E0
1.365630412E1,2.301613770E0,5.136119385E0,7.865244141E0,9.671567281E0
1.366625812E1,2.246977386E0,5.295537872E0,7.318131866E0,9.308419992E0
1.367621112E1,2.243833923E0,5.657485199E0,6.770271149E0,9.103763007E0
1.368616412E1,1.917811890E0,5.627846832E0,6.430477753E0,8.757951047E0
1.369611812E1,1.576820984E0,5.517077179E0,6.140530701E0,8.404202657E0
1.370607112E1,1.567689972E0,5.813460846E0,6.511908417E0,8.868986982E0
1.371602513E1,1.981728973E0,6.003565521E0,7.205116882E0,9.585601597E0
1.372597813E1,2.308649139E0,6.036646729E0,6.687193909E0,9.299974567E0
1.373593213E1,2.153272247E0,6.033802643E0,6.634204102E0,9.222582055E0
1.374588513E1,2.002386017E0,5.934259644E0,6.303541718E0,8.885922882E0
1.375583813E1,1.982477417E0,5.777535553E0,6.650520172E0,9.029925378E0
1.376579213E1,2.276466064E0,5.956413574E0,7.552245026E0,9.884207876E0
1.377574513E1,2.371967468E0,6.344257050E0,7.666307831E0,1.022976554E1
1.378569913E1,2.207160187E0,6.453230438E0,7.183711395E0,9.905627117E0
1.379565213E1,1.931583252E0,6.596482544E0,6.997049561E0,9.808328011E0
1.380560612E1,1.569186859E0,6.696624298E0,6.934030609E0,9.766673173E0
1.381555912E1,1.164428558E0,7.065606995E0,7.778125305E0,1.057250819E1
1.382551212E1,9.048683167E-1,7.577542419E0,7.766299896E0,1.088822069E1
1.383546612E1,9.377998352E-1,7.232210541E0,8.080945587E0,1.088512836E1
1.384541912E1,1.172511749E0,6.936275940E0,8.437354431E0,1.098524727E1
1.385537312E1,1.094374237E0,7.130721588E0,7.619006195E0,1.049257360E1
1.386532612E1,1.293609924E0,6.530469818E0,6.887327728E0,9.578921960E0
1.387527912E1,1.662742310E0,6.695875854E0,6.666536865E0,9.593861539E0
1.388523312E1,1.748364258E0,6.653663635E0,6.810238037E0,9.680256168E0
1.389518612E1,1.932780762E0,6.550378418E0,6.720125427E0,9.581397844E0
1.390514012E1,2.044747925E0,6.552324371E0,6.571933594E0,9.502855355E0
1.391509312E1,2.084565125E0,6.586154022E0,6.536756744E0,9.510626967E0
1.392504712E1,2.196232910E0,6.730603638E0,6.999145203E0,9.955525998E0
1.393500012E1,2.072739716E0,7.280410309E0,7.825277252E0,1.088740503E1
1.394495312E1,2.031725006E0,8.319250031E0,7.747888184E0,1.154848903E1
1.395490712E1,1.997745667E0,9.378746796E0,7.130721588E0,1.194985647E1
1.396486012E1,1.486558685E0,1.032747391E1,6.436165924E0,1.225931506E1
1.397481412E1,1.175056458E0,1.067505112E1,6.431375885E0,1.251798985E1
1.398476712E1,1.690734100E0,1.006252487E1,7.251370697E0,1.251780195E1
1.399472112E1,2.053130493E0,8.697214050E0,7.765401764E0,1.183884883E1
1.400467412E1,1.847757568E0,7.333699493E0,7.683971100E0,1.078150120E1
1.401462712E1,1.322050781E0,6.538403320E0,7.438032532E0,9.991139284E0
1.402458113E1,1.268013153E0,6.292913818E0,7.836354218E0,1.013000835E1
1.403453413E1,1.627864838E0,6.232439575E0,7.582182770E0,9.949007113E0
1.404448813E1,2.096540222E0,6.504124603E0,7.668852539E0,1.027182637E1
1.405444113E1,2.426454163E0,6.939868469E0,7.825127563E0,1.073694908E1
1.406439413E1,2.563419342E0,7.368427277E0,7.208859100E0,1.062226383E1
1.407434813E1,1.887874146E0,7.714357910E0,6.653364258E0,1.036062945E1
1.408430113E1,1.504371643E0,8.702004089E0,6.946754150E0,1.123589794E1
1.409425512E1,1.114881592E0,9.318721619E0,5.866600342E0,1.106790554E1
1.410420812E1,9.119036865E-1,9.373956757E0,5.648653564E0,1.098225481E1
1.411416212E1,1.069974976E0,9.145232391E0,5.249284058E0,1.059882565E1
1.412411512E1,1.184486847E0,8.911268921E0,5.615123291E0,1.059921377E1
1.413406812E1,1.303639069E0,8.836873627E0,5.976322174E0,1.074738280E1
1.414402212E1,1.628762970E0,8.911717987E0,5.700745239E0,1.070374152E1
1.415397512E1,1.949994965E0,8.699160004E0,5.478307800E0,1.046373363E1
1.416392912E1,2.140698395E0,8.441096649E0,6.002068634E0,1.057636659E1
1.417388212E1,2.311642914E0,8.416547699E0,6.447991333E0,1.085166164E1
1.418383612E1,2.157313843E0,8.478967896E0,6.800059204E0,1.108096136E1
1.419378912E1,1.487606506E0,8.601413269E0,6.628515930E0,1.096058880E1
1.420374212E1,7.996371460E-1,8.746012573E0,6.670578461E0,1.102854353E1
1.421369612E1,4.258644104E-1,8.516240387E0,7.191046143E0,1.115432004E1
1.422364912E1,5.545967102E-1,8.092022552E0,7.749534760E0,1.121800764E1
1.423360312E1,1.289718018E0,7.603737946E0,7.354356537E0,1.065677078E1
1.424355612E1,2.131866760E0,7.252418518E0,6.680457916E0,1.008815881E1
1.425350912E1,2.798131256E0,7.510930939E0,6.125561829E0,1.008791999E1
1.426346312E1,3.064577179E0,7.929011536E0,4.984335022E0,9.854159164E0
1.427341612E1,3.022963715E0,8.364755402E0,3.936813354E0,9.726558587E0
1.428337012E1,2.817291412E0,8.873247986E0,3.015179901E0,9.785855637E0
1.429332312E1,2.316432953E0,9.291627960E0,3.238665161E0,1.010886560E1
1.430327713E1,2.223476257E0,9.955647125E0,3.447929993E0,1.076786783E1
1.431323013E1,2.178419952E0,1.036160294E1,3.612587585E0,1.118745360E1
1.432318313E1,2.163750458E0,1.032477951E1,3.393443298E0,1.108144149E1
1.433313713E1,2.210752716E0,9.940977631E0,3.355422363E0,1.072237488E1
1.434309013E1,2.374512177E0,9.351353760E0,3.497027893E0,1.026232573E1
1.435304387E1,2.483635254E0,8.934470673E0,4.236639862E0,1.019521101E1
1.436299687E1,2.388882294E0,8.423583069E0,4.208049316E0,9.714483485E0
1.437294987E1,1.923799438E0,8.195307770E0,4.692442017E0,9.637587136E0
1.438290387E1,1.520388336E0,8.247698822E0,5.268444214E0,9.904171898E0
1.439285687E1,1.189875641E0,8.420738983E0,5.255121918E0,9.997047336E0
1.440281087E1,9.383985901E-1,8.667276306E0,5.486540680E0,1.030069896E1
1.441276387E1,4.882846069E-1,8.869505768E0,5.336702271E0,1.036276727E1
1.442271787E1,1.751358032E-1,8.830886078E0,5.213209076E0,1.025635268E1
1.443267087E1,-4.206253052E-2,8.555758209E0,4.962330780E0,9.890778259E0
1.444262387E1,-1.107696533E-1,8.224646759E0,4.564907227E0,9.407202677E0
1.445257787E1,2.709365845E-1,8.131989441E0,4.691843262E0,9.392340075E0
1.446253087E1,8.134085083E-1,8.066276093E0,3.894750824E0,8.994194093E0
1.447248488E1,1.437460785E0,7.685617676E0,2.838996277E0,8.318347939E0
1.448243788E1,1.935175781E0,7.104675751E0,2.834056549E0,7.890069667E0
1.449239088E1,2.451302490E0,6.819219360E0,4.018244019E0,8.285947235E0
1.450234488E1,2.887645111E0,6.746171265E0,4.559668121E0,8.639438315E0
1.451229788E1,2.915038147E0,6.551725616E0,3.896547089E0,8.161227553E0
1.452225188E1,2.715652771E0,6.383475494E0,3.119662628E0,7.606301616E0
1.453220488E1,2.505489807E0,6.333629150E0,2.742147675E0,7.342459483E0
1.454215888E1,2.296674042E0,6.217171326E0,3.003953247E0,7.276789543E0
1.455211188E1,2.196681976E0,6.107748871E0,3.537144470E0,7.391982074E0
1.456206487E1,2.189796295E0,6.094576263E0,3.624562683E0,7.421355826E0
1.457201887E1,2.254162445E0,6.082601166E0,3.990551605E0,7.616021756E0
1.458197187E1,2.113604736E0,6.057154083E0,4.943769379E0,8.099215779E0
1.459192587E1,1.738335114E0,6.029012604E0,5.492079163E0,8.338689074E0
1.460187887E1,1.388512573E0,6.241869965E0,5.623805237E0,8.515638154E0
1.461183187E1,9.172924805E-1,6.261778564E0,5.770949249E0,8.564762199E0
1.462178587E1,3.303630066E-1,6.180198212E0,5.979016571E0,8.605383711E0
1.463173887E1,1.134640503E-1,6.106401672E0,6.070775757E0,8.611349126E0
1.464169287E1,-1.709445190E-1,6.409970398E0,6.540349274E0,9.159318269E0
1.465164587E1,-3.577560425E-1,6.852599945E0,6.948999481E0,9.765997603E0
1.466159987E1,-3.204835510E-1,7.431296539E0,6.557862854E0,9.916271637E0
1.467155287E1,-2.821632385E-1,7.977810059E0,5.636229401E0,9.772008559E0
1.468150587E1,-4.311035156E-2,8.103847961E0,5.229525146E0,9.644798782E0
1.469145987E1,5.619314575E-1,8.373137970E0,5.631289673E0,1.010626686E1
1.470141287E1,1.149160309E0,8.702153778E0,5.306465149E0,1.025702794E1
1.471136687E1,1.648821259E0,8.621022491E0,4.970563660E0,1.008697891E1
1.472131987E1,1.975741425E0,8.143365784E0,5.103786621E0,9.811554328E0
1.473127387E1,2.150877228E0,7.529642029E0,4.620441742E0,9.092318946E0
1.474122687E1,2.115700378E0,7.265441437E0,4.043242035E0,8.579663951E0
1.475117987E1,1.930535431E0,7.507488098E0,3.714824982E0,8.595886763E0
1.476113387E1,1.869013367E0,7.892188110E0,3.707190857E0,8.917572999E0
1.477108688E1,2.027384033E0,8.114775238E0,4.103716278E0,9.316670568E0
1.478104088E1,2.144141235E0,8.395740967E0,4.675527191E0,9.846134395E0
1.479099388E1,2.085313568E0,8.787476349E0,4.990771637E0,1.031872448E1
1.480094688E1,1.748064880E0,9.300160217E0,4.574187927E0,1.051056164E1
1.481090088E1,1.367556152E0,9.612710266E0,3.477418671E0,1.031343052E1
1.482085388E1,1.161285095E0,9.488169250E0,3.279679871E0,1.010595067E1
1.483080788E1,1.348545685E0,8.979227600E0,3.327280884E0,9.670362032E0
1.484076088E1,1.962419128E0,8.472980347E0,2.530338135E0,9.057874799E0
1.485071388E1,2.573747864E0,7.842491455E0,2.620151367E0,8.659910131E0
1.486066787E1,3.019670563E0,7.472910004E0,3.634741516E0,8.841614113E0
1.487062087E1,3.273542633E0,7.387737122E0,4.318968658E0,9.162326747E0
1.488057487E1,3.349135437E0,7.602241058E0,4.268822937E0,9.339894354E0
1.489052787E1,3.101250916E0,7.967331848E0,3.890409851E0,9.393158299E0
1.490048087E1,2.761307831E0,8.264314270E0,3.203039246E0,9.283489199E0
1.491043487E1,2.447410583E0,8.686735840E0,2.757415924E0,9.436765372E0
1.492038787E1,1.999990997E0,9.172924805E0,2.723436584E0,9.775460106E0
1.493034187E1,1.634451141E0,9.454938354E0,2.831362152E0,1.000419419E1
1.494029487E1,1.512155457E0,9.397607574E0,3.049907684E0,9.995177794E0
1.495024887E1,1.513352966E0,9.100625153E0,3.305126953E0,9.799769362E0
1.496020187E1,1.394200745E0,8.702004089E0,3.350931702E0,9.428542526E0
1.497015487E1,1.094374237E0,8.310119019E0,3.198997650E0,8.971583976E0
1.498010887E1,8.574169922E-1,7.874375153E0,2.635718994E0,8.347931634E0
1.499006187E1,8.048762512E-1,7.548353119E0,2.072440338E0,7.868956064E0
1.500001587E1,1.037642212E0,7.602390747E0,1.820214844E0,7.885824529E0
1.500996887E1,1.356030121E0,7.751929779E0,2.052681427E0,8.132941290E0
1.501992187E1,1.776805115E0,8.024662628E0,2.426154785E0,8.569625065E0
1.502987587E1,2.142195282E0,8.353229370E0,2.461780701E0,8.968043586E0
1.503982887E1,2.107617188E0,8.649613037E0,2.255958710E0,9.184073475E0
1.504978287E1,1.783391418E0,8.940907288E0,1.882784729E0,9.309413860E0
1.505973587E1,1.495240631E0,9.082213440E0,1.321901093E0,9.298912195E0
1.506968988E1,1.269959106E0,9.234297180E0,9.610015869E-1,9.370622423E0
1.507964288E1,1.385818176E0,9.450597382E0,7.104226685E-1,9.578046944E0
1.508959588E1,1.791324921E0,9.513766022E0,5.631289673E-1,9.697303910E0
1.509954988E1,2.371069336E0,9.531878357E0,7.637118530E-1,9.852001350E0
1.510950288E1,2.929258575E0,9.398505707E0,7.972421265E-1,9.876642159E0
1.511945688E1,3.469335480E0,9.129664764E0,1.067879333E0,9.824837589E0
1.512940988E1,3.994293823E0,8.917406158E0,1.075064392E0,9.830070152E0
1.513936288E1,4.181404724E0,8.633147278E0,7.554789734E-1,9.622168460E0
1.514931688E1,3.965553589E0,8.502319336E0,4.920268250E-1,9.394527117E0
1.515926988E1,3.578757935E0,8.514743500E0,-7.185058594E-3,9.236255564E0
1.516922387E1,3.307372284E0,8.658444672E0,-4.635859680E-1,9.280209454E0
1.517917687E1,3.268752594E0,9.036558380E0,-7.794291687E-1,9.641143122E0
1.518912987E1,3.404370575E0,9.427096252E0,-4.053570557E-1,1.003116130E1
1.519908387E1,3.684438171E0,9.698930969E0,-8.487350464E-2,1.037552650E1
1.520903687E1,3.923491058E0,9.920619965E0,-2.454895020E-2,1.066832157E1
1.521899087E1,3.959715729E0,1.009216324E1,-1.151106262E-1,1.084178758E1
1.522894387E1,3.635190582E0,1.016446289E1,-7.978408813E-2,1.079524349E1
1.523889787E1,3.319796448E0,1.010174332E1,1.362167358E-1,1.063413473E1
1.524885087E1,3.134930878E0,9.956545258E0,4.170327759E-1,1.044674597E1
1.525880387E1,2.812052307E0,9.805359650E0,5.298980713E-1,1.021437751E1
1.526875787E1,2.807411957E0,9.686357117E0,8.960366821E-1,1.012472014E1
1.527871087E1,2.897973633E0,9.511670380E0,1.106798401E0,1.000475523E1
1.528866487E1,3.093467102E0,9.242380371E0,1.094823303E0,9.807638436E0
1.529861787E1,3.426823883E0,8.966204681E0,1.094523926E0,9.660948760E0
1.530857087E1,3.812272339E0,8.679251404E0,1.253044281E0,9.562057586E0
1.531852487E1,3.775897980E0,8.334667969E0,1.341660004E0,9.247926647E0
1.532847787E1,3.615431671E0,8.031997375E0,1.357527008E0,8.912194319E0
1.533843187E1,3.485651550E0,7.859406281E0,1.206940155E0,8.681977790E0
1.534838487E1,3.081042938E0,7.857310638E0,1.209185486E0,8.525977105E0
1.535833787E1,2.601739655E0,8.134534149E0,1.203497314E0,8.624853671E0
1.536829187E1,2.507585449E0,8.300089874E0,1.621877289E0,8.820995559E0
1.537824487E1,2.671793976E0,8.307574310E0,2.183209991E0,8.995592245E0
1.538819888E1,2.809657288E0,8.186625824E0,2.750230865E0,9.081783210E0
1.539815188E1,2.775677948E0,8.109685822E0,3.318299561E0,9.191436458E0
1.540810488E1,2.607727203E0,8.195008392E0,3.847898254E0,9.421503314E0
1.541805888E1,2.363734589E0,8.519533539E0,4.295168152E0,9.829453819E0
1.542801188E1,2.285597076E0,9.021140442E0,4.367767181E0,1.028019061E1
1.543796588E1,2.401755524E0,9.320517883E0,4.125421143E0,1.047184715E1
1.544791888E1,2.492017822E0,9.560319214E0,3.996239777E0,1.065738189E1
1.545787188E1,2.489024048E0,9.772428131E0,3.788172455E0,1.077245760E1
1.546782587E1,2.458188171E0,9.890831909E0,3.594325562E0,1.080696170E1
1.547777887E1,2.412982178E0,9.765542450E0,3.364703064E0,1.060705091E1
1.548773287E1,2.436483307E0,9.681267700E0,3.173999634E0,1.047557487E1
1.549768587E1,2.543810120E0,9.608069916E0,3.091521149E0,1.040881744E1
1.550763987E1,2.709365845E0,9.616003418E0,3.015179901E0,1.043549208E1
1.551759287E1,2.849175110E0,9.662107544E0,3.143014069E0,1.055237691E1
1.552754587E1,2.812052307E0,9.717492371E0,3.435056763E0,1.068348778E1
1.553749987E1,2.627037048E0,9.911938019E0,3.652255096E0,1.088516450E1
1.554745287E1,2.429148560E0,1.021879990E1,3.890858917E0,1.120104536E1
1.555740687E1,2.098037109E0,1.076007431E1,4.041445770E0,1.168393096E1
1.556735987E1,1.777703247E0,1.101439545E1,3.255729675E0,1.162225932E1
1.557731287E1,1.562301178E0,1.116573074E1,2.745590515E0,1.160399049E1
1.558726687E1,1.600471802E0,1.126153152E1,2.688858490E0,1.168818045E1
1.559721987E1,1.962419128E0,1.083686462E1,2.703977051E0,1.134020351E1
1.560717387E1,2.479144592E0,1.034004776E1,2.714305573E0,1.097406945E1
1.561712687E1,2.900668030E0,9.967023468E0,2.546504517E0,1.068831685E1
1.562707987E1,3.107986908E0,9.777218170E0,2.599344635E0,1.058348573E1
1.563703387E1,3.229983215E0,9.717192993E0,2.753374329E0,1.060366453E1
1.564698687E1,3.171454926E0,9.748777313E0,2.723735962E0,1.060733346E1
1.565694087E1,3.080144806E0,9.727222137E0,2.398312683E0,1.048131892E1
1.566689387E1,2.953508148E0,9.726324005E0,2.267185364E0,1.041463962E1
1.567684687E1,2.801125031E0,9.726174316E0,2.208357697E0,1.035961447E1
1.568680088E1,2.834056549E0,9.680070190E0,2.086361389E0,1.029992909E1
1.569675388E1,3.052153015E0,9.638456726E0,1.953737183E0,1.029721200E1
1.570670788E1,3.318449249E0,9.591454468E0,1.890119476E0,1.032379077E1
1.571666088E1,3.460803223E0,9.603728943E0,1.868115234E0,1.037779471E1
1.572661388E1,3.513493652E0,9.666598206E0,1.734293518E0,1.043050970E1
1.573656788E1,3.516936493E0,9.746382294E0,1.536105652E0,1.047475206E1
1.574652088E1,3.421884155E0,9.748028870E0,1.497485962E0,1.043914854E1
1.575647488E1,3.255729675E0,9.621392212E0,1.596430206E0,1.028200142E1
1.576642788E1,3.180436249E0,9.421707458E0,1.640588379E0,1.007845605E1
1.577638088E1,3.208727417E0,9.279203796E0,1.794917450E0,9.981046207E0
1.578633487E1,3.241808624E0,9.197773132E0,1.917063446E0,9.938988178E0
1.579628787E1,3.249143372E0,9.148525543E0,1.858535156E0,9.884665153E0
1.580624187E1,3.218307495E0,9.185199280E0,1.739382935E0,9.886902545E0
1.581619487E1,3.253035278E0,9.247918854E0,1.716330872E0,9.952488800E0
1.582614787E1,3.351380768E0,9.302555237E0,1.655557251E0,1.002547539E1
1.583610187E1,3.432661743E0,9.266330566E0,1.594633942E0,1.000954076E1
1.584605487E1,3.355272675E0,9.219477997E0,1.670376434E0,9.952225213E0
1.585600887E1,3.259471893E0,9.141639862E0,1.850451965E0,9.880177573E0
1.586596187E1,3.177292786E0,9.126221924E0,1.998943176E0,9.868074274E0
1.587591487E1,3.123105469E0,9.048383789E0,1.887724457E0,9.756563974E0
1.588586887E1,3.124452667E0,8.953780518E0,1.693877563E0,9.633359291E0
1.589582187E1,3.295696564E0,9.036259003E0,1.643282776E0,9.757867128E0
1.590577587E1,3.612737274E0,9.134005737E0,1.444346466E0,9.928145252E0
1.591572887E1,3.963158569E0,9.172775116E0,1.807640991E0,1.015450615E1
1.592568287E1,4.090094604E0,9.075776825E0,1.852846985E0,1.012579087E1
1.593563587E1,3.959566040E0,8.856782227E0,1.362915802E0,9.796851235E0
1.594558887E1,3.649560699E0,8.985664215E0,1.132095795E0,9.764378914E0
1.595554287E1,3.310066681E0,9.473649445E0,1.303938446E0,1.011962602E1
1.596549587E1,2.999761963E0,9.739646301E0,1.457519073E0,1.029483578E1
1.597544987E1,2.916085968E0,9.876312103E0,1.453178101E0,1.039984734E1
1.598540287E1,3.129841461E0,9.913285217E0,1.394949188E0,1.048880425E1
1.599535587E1,3.562591553E0,9.798773346E0,1.459165649E0,1.052792392E1
1.600530988E1,4.041745148E0,9.528435516E0,1.445244598E0,1.045062291E1
1.601526288E1,4.285588074E0,9.195976868E0,1.551822968E0,1.026354764E1
1.602521688E1,4.243226166E0,8.968599701E0,1.445543976E0,1.002648225E1
1.603516988E1,4.047283630E0,8.895401917E0,1.282982025E0,9.856709538E0
1.604512288E1,3.874393158E0,9.061406708E0,1.341959381E0,9.945897086E0
1.605507688E1,3.783681793E0,9.368118896E0,1.531016235E0,1.021870394E1
1.606502988E1,3.697910156E0,9.589658203E0,1.641486511E0,1.040819686E1
1.607498387E1,3.606300659E0,9.639504547E0,1.566043396E0,1.041047282E1
1.608493687E1,3.523373108E0,9.648485870E0,1.499581604E0,1.038056755E1
1.609488987E1,3.366349640E0,9.550739136E0,1.429227905E0,1.022700447E1
1.610484387E1,3.275638275E0,9.379944305E0,1.411115570E0,1.003515862E1
1.611479687E1,3.260220337E0,9.279203796E0,1.475182343E0,9.945291483E0
1.612475087E1,3.248394928E0,9.282347260E0,1.598226471E0,9.963351249E0
1.613470387E1,3.200644226E0,9.301058350E0,1.743125153E0,9.989609361E0
1.614465687E1,3.224295044E0,9.310638428E0,1.663191376E0,9.992510796E0
1.615461087E1,3.367247772E0,9.295968933E0,1.635798340E0,1.002143863E1
1.616456387E1,3.542982330E0,9.341474304E0,1.706750793E0,1.013552486E1
1.617451787E1,3.603606262E0,9.400601349E0,1.720821533E0,1.021364335E1
1.618447087E1,3.507805481E0,9.435778198E0,1.671573944E0,1.020454648E1
1.619442387E1,3.354673920E0,9.423204346E0,1.643582153E0,1.013666511E1
1.620437787E1,3.212769012E0,9.420959015E0,1.611249390E0,1.008327715E1
1.621433087E1,3.171903992E0,9.380692749E0,1.675166473E0,1.004313467E1
1.622428487E1,3.222199402E0,9.344468079E0,1.662442932E0,1.002324145E1
1.623423787E1,3.285368042E0,9.246421967E0,1.520837402E0,9.929899736E0
1.624419087E1,3.360960846E0,9.183552704E0,1.418300629E0,9.881562364E0
1.625414487E1,3.416195984E0,9.180109863E0,1.281784515E0,9.878652927E0
1.626409787E1,3.447929993E0,9.246721344E0,1.118174744E0,9.931786929E0
1.627405187E1,3.489693146E0,9.370962982E0,1.420246582E0,1.010000029E1
1.628400487E1,3.486100616E0,9.421557770E0,1.743274841E0,1.019596271E1
1.629395787E1,3.462150421E0,9.269623718E0,1.640887756E0,1.003020050E1
1.630391188E1,3.443888397E0,9.196575623E0,1.259181519E0,9.900651927E0
1.631386488E1,3.347788239E0,9.333391113E0,1.098565521E0,9.976308033E0
1.632381888E1,3.184777222E0,9.594148865E0,1.232387238E0,1.018377517E1
1.633377188E1,3.092868347E0,9.648036804E0,1.431772614E0,1.023232240E1
1.634372488E1,3.107088776E0,9.540111237E0,1.506616974E0,1.014581775E1
1.635368125E1,3.076701965E0,9.438322906E0,1.403481445E0,1.002585629E1
1.636363425E1,3.147205353E0,9.480086060E0,1.286275177E0,1.007131754E1
1.637358825E1,3.122207336E0,9.533524933E0,1.353485413E0,1.012265771E1
1.638354125E1,3.034340057E0,9.547296295E0,1.440005493E0,1.012085480E1
1.639349425E1,2.973865814E0,9.464817810E0,1.446591797E0,1.002593047E1
1.640344825E1,2.917133789E0,9.332942047E0,1.355730743E0,9.871751752E0
1.641340125E1,3.021317139E0,9.218879242E0,1.169218597E0,9.771548693E0
1.642335525E1,3.125650177E0,9.192384338E0,1.113833771E0,9.772934284E0
1.643330825E1,3.260220337E0,9.261540527E0,1.070573730E0,9.876806047E0
1.644326125E1,3.373834076E0,9.287286987E0,1.107846222E0,9.943026662E0
1.645321525E1,3.471880188E0,9.374405823E0,1.136586456E0,1.006107675E1
1.646316825E1,3.520828400E0,9.447154541E0,1.057251434E0,1.013719597E1
1.647312225E1,3.472628632E0,9.472302246E0,1.081201630E0,1.014655885E1
1.648307525E1,3.330274658E0,9.487271118E0,1.052611084E0,1.010974939E1
1.649302825E1,3.156635742E0,9.406888275E0,1.063238983E0,9.979197030E0
1.650298225E1,3.063379669E0,9.280251617E0,9.645941162E-1,9.820275296E0
1.651293525E1,3.147355042E0,9.191336517E0,8.219407654E-1,9.749979351E0
1.652288925E1,3.204236755E0,9.216933289E0,6.620732117E-1,9.780456705E0
1.653284225E1,3.218157806E0,9.376351776E0,5.083428955E-1,9.926274467E0
1.654279525E1,3.237018585E0,9.508526917E0,4.984634399E-1,1.005678076E1
1.655274925E1,3.271297302E0,9.567055206E0,5.263055420E-1,1.012457055E1
1.656270225E1,3.291355591E0,9.567204895E0,5.698649597E-1,1.013356685E1
1.657265625E1,3.316952362E0,9.535321198E0,6.864724731E-1,1.011907939E1
1.658260925E1,3.313659210E0,9.426198120E0,6.926097107E-1,1.001565058E1
1.659256225E1,3.314407654E0,9.262139282E0,4.963677979E-1,9.849817418E0
1.660251625E1,3.299139404E0,9.070986786E0,3.026705933E-1,9.657056051E0
1.661246925E1,3.288810883E0,8.927435303E0,8.397537231E-2,9.514327615E0
1.662242325E1,3.302133179E0,8.883875885E0,3.457809448E-2,9.477791405E0
1.663237625E1,3.418291626E0,9.004225616E0,2.384541321E-1,9.634192076E0
1.664232925E1,3.525618439E0,9.163644104E0,5.493576050E-1,9.833826947E0
1.665228325E1,3.522025909E0,9.146579590E0,5.132826233E-1,9.814685107E0
1.666223625E1,3.498674469E0,9.140142975E0,2.266287231E-1,9.789499334E0
1.667219025E1,3.529210968E0,9.112749939E0,6.840774536E-2,9.772523785E0
1.668214325E1,3.514092407E0,9.079519043E0,7.439529419E-2,9.736120693E0
1.669209625E1,3.485202484E0,8.972790985E0,2.594105530E-1,9.629377355E0
1.670205025E1,3.552861786E0,8.952732697E0,4.219725037E-1,9.641177853E0
1.671200325E1,3.634142761E0,8.956175537E0,3.106040955E-1,9.670395481E0
1.672195625E1,3.802093506E0,8.936566315E0,2.100132751E-1,9.714022756E0
1.673191025E1,3.941902771E0,8.970994720E0,3.716770935E-1,9.805890454E0
1.674186325E1,3.897894287E0,9.002129974E0,5.972579956E-1,9.827952028E0
1.675181725E1,3.712130585E0,9.061257019E0,8.451425171E-1,9.828558293E0
1.676177025E1,3.473975830E0,9.139244843E0,8.978329468E-1,9.818370963E0
1.677172325E1,3.297343140E0,9.193432159E0,8.273295593E-1,9.801843747E0
1.678167725E1,3.221301270E0,9.263187103E0,6.628216553E-1,9.829687163E0
1.679163025E1,3.194806366E0,9.272467804E0,7.194039917E-1,9.833767792E0
1.680158425E1,3.167563019E0,9.299561462E0,7.783813477E-1,9.855007681E0
1.681153725E1,3.234324188E0,9.311686249E0,7.232958984E-1,9.883901593E0
1.682149125E1,3.382366333E0,9.264983368E0,6.225553894E-1,9.882706817E0
1.683144425E1,3.514691162E0,9.142388306E0,6.276448059E-1,9.814797802E0
1.684139725E1,3.495830383E0,9.038204956E0,6.569837952E-1,9.712960754E0
1.685135125E1,3.431314545E0,8.964857483E0,5.815406799E-1,9.616692714E0
